File: DestructiveTests/Tensile/FIBERGLASS TENSILE.is_qtest_Exports/FIBERGLASS TENSILE_3.csv
Time,Displacement,Force
(s),(mm),(kN)
"0.0000","0.1875","1.9305"
"0.2000","0.1880","1.9306"
"0.4000","0.1881","1.9315"
"0.6000","0.1955","1.9855"
"0.8000","0.1978","1.9987"
"1.0000","0.2015","2.0223"
"1.2000","0.2045","2.0388"
"1.4000","0.2081","2.0573"
"1.6000","0.2112","2.0711"
"1.8000","0.2146","2.0889"
"2.0000","0.2181","2.1054"
"2.2000","0.2212","2.1205"
"2.4000","0.2247","2.1380"
"2.6000","0.2279","2.1530"
"2.8000","0.2314","2.1687"
"3.0000","0.2346","2.1847"
"3.2000","0.2380","2.2004"
"3.4000","0.2413","2.2159"
"3.6000","0.2446","2.2309"
"3.8000","0.2480","2.2464"
"4.0000","0.2513","2.2610"
"4.2000","0.2548","2.2763"
"4.4000","0.2578","2.2895"
"4.6000","0.2613","2.3065"
"4.8000","0.2646","2.3199"
"5.0000","0.2679","2.3347"
"5.2000","0.2716","2.3517"
"5.4000","0.2744","2.3631"
"5.6000","0.2780","2.3797"
"5.8000","0.2813","2.3932"
"6.0000","0.2845","2.4065"
"6.2000","0.2882","2.4238"
"6.4000","0.2912","2.4362"
"6.6000","0.2947","2.4510"
"6.8000","0.2979","2.4640"
"7.0000","0.3012","2.4781"
"7.2000","0.3048","2.4933"
"7.4000","0.3078","2.5056"
"7.6000","0.3115","2.5224"
"7.8000","0.3145","2.5329"
"8.0000","0.3180","2.5483"
"8.2000","0.3214","2.5619"
"8.4000","0.3244","2.5738"
"8.6000","0.3282","2.5906"
"8.8000","0.3311","2.6006"
"9.0000","0.3348","2.6161"
"9.2000","0.3379","2.6283"
"9.4000","0.3411","2.6360"
"9.6000","0.3449","2.6341"
"9.8000","0.3476","2.6378"
"10.0000","0.3516","2.6478"
"10.2000","0.3545","2.6587"
"10.4000","0.3578","2.6723"
"10.6000","0.3615","2.6872"
"10.8000","0.3643","2.6973"
"11.0000","0.3683","2.7160"
"11.2000","0.3711","2.7245"
"11.4000","0.3744","2.7383"
"11.6000","0.3781","2.7536"
"11.8000","0.3811","2.7652"
"12.0000","0.3850","2.7828"
"12.2000","0.3878","2.7925"
"12.4000","0.3912","2.8050"
"12.6000","0.3947","2.8193"
"12.8000","0.3977","2.8297"
"13.0000","0.4016","2.8467"
"13.2000","0.4046","2.8578"
"13.4000","0.4079","2.8711"
"13.6000","0.4114","2.8849"
"13.8000","0.4145","2.8960"
"14.0000","0.4180","2.9115"
"14.2000","0.4212","2.9243"
"14.4000","0.4246","2.9365"
"14.6000","0.4280","2.9506"
"14.8000","0.4314","2.9634"
"15.0000","0.4346","2.9757"
"15.2000","0.4380","2.9904"
"15.4000","0.4412","3.0018"
"15.6000","0.4444","3.0148"
"15.8000","0.4483","3.0321"
"16.0000","0.4512","3.0411"
"16.2000","0.4547","3.0562"
"16.4000","0.4578","3.0668"
"16.6000","0.4611","3.0809"
"16.8000","0.4650","3.0974"
"17.0000","0.4676","3.1070"
"17.2000","0.4714","3.1226"
"17.4000","0.4745","3.1321"
"17.6000","0.4778","3.1466"
"17.8000","0.4818","3.1637"
"18.0000","0.4843","3.1716"
"18.2000","0.4881","3.1890"
"18.4000","0.4911","3.1987"
"18.6000","0.4943","3.2107"
"18.8000","0.4986","3.2290"
"19.0000","0.5009","3.2350"
"19.2000","0.5049","3.2541"
"19.4000","0.5078","3.2628"
"19.6000","0.5111","3.2763"
"19.8000","0.5150","3.2924"
"20.0000","0.5175","3.3003"
"20.2000","0.5217","3.3193"
"20.4000","0.5246","3.3284"
"20.6000","0.5277","3.3414"
"20.8000","0.5316","3.3572"
"21.0000","0.5343","3.3662"
"21.2000","0.5382","3.3834"
"21.4000","0.5413","3.3947"
"21.6000","0.5445","3.4075"
"21.8000","0.5481","3.4212"
"22.0000","0.5510","3.4316"
"22.2000","0.5548","3.4474"
"22.4000","0.5580","3.4594"
"22.6000","0.5609","3.4701"
"22.8000","0.5646","3.4848"
"23.0000","0.5680","3.4979"
"23.2000","0.5713","3.5107"
"23.4000","0.5747","3.5235"
"23.6000","0.5778","3.5354"
"23.8000","0.5813","3.5490"
"24.0000","0.5848","3.5639"
"24.2000","0.5878","3.5739"
"24.4000","0.5914","3.5904"
"24.6000","0.5945","3.6002"
"24.8000","0.5979","3.6127"
"25.0000","0.6018","3.6290"
"25.2000","0.6044","3.6368"
"25.4000","0.6080","3.6519"
"25.6000","0.6111","3.6634"
"25.8000","0.6145","3.6769"
"26.0000","0.6184","3.6929"
"26.2000","0.6209","3.7003"
"26.4000","0.6247","3.7158"
"26.6000","0.6279","3.7276"
"26.8000","0.6311","3.7404"
"27.0000","0.6350","3.7569"
"27.2000","0.6376","3.7634"
"27.4000","0.6415","3.7807"
"27.6000","0.6445","3.7905"
"27.8000","0.6477","3.8029"
"28.0000","0.6518","3.8197"
"28.2000","0.6542","3.8266"
"28.4000","0.6581","3.8429"
"28.6000","0.6613","3.8540"
"28.8000","0.6644","3.8651"
"29.0000","0.6682","3.8819"
"29.2000","0.6710","3.8897"
"29.4000","0.6749","3.9064"
"29.6000","0.6780","3.9166"
"29.8000","0.6811","3.9278"
"30.0000","0.6848","3.9427"
"30.2000","0.6878","3.9520"
"30.4000","0.6915","3.9677"
"30.6000","0.6946","3.9778"
"30.8000","0.6978","3.9897"
"31.0000","0.7013","4.0023"
"31.2000","0.7045","4.0134"
"31.4000","0.7080","4.0280"
"31.6000","0.7113","4.0397"
"31.8000","0.7146","4.0510"
"32.0000","0.7179","4.0635"
"32.2000","0.7215","4.0782"
"32.4000","0.7246","4.0877"
"32.6000","0.7280","4.0999"
"32.8000","0.7312","4.1122"
"33.0000","0.7346","4.1247"
"33.2000","0.7383","4.1402"
"33.4000","0.7411","4.1496"
"33.6000","0.7447","4.1632"
"33.8000","0.7479","4.1736"
"34.0000","0.7511","4.1856"
"34.2000","0.7550","4.2009"
"34.4000","0.7577","4.2090"
"34.6000","0.7613","4.2235"
"34.8000","0.7646","4.2354"
"35.0000","0.7677","4.2460"
"35.2000","0.7718","4.2638"
"35.4000","0.7743","4.2697"
"35.6000","0.7781","4.2854"
"35.8000","0.7814","4.2954"
"36.0000","0.7844","4.3068"
"36.2000","0.7884","4.3230"
"36.4000","0.7909","4.3289"
"36.6000","0.7947","4.3446"
"36.8000","0.7980","4.3574"
"37.0000","0.8010","4.3669"
"37.2000","0.8051","4.3841"
"37.4000","0.8076","4.3904"
"37.6000","0.8114","4.4058"
"37.8000","0.8147","4.4164"
"38.0000","0.8177","4.4277"
"38.2000","0.8216","4.4434"
"38.4000","0.8244","4.4519"
"38.6000","0.8282","4.4678"
"38.8000","0.8313","4.4772"
"39.0000","0.8344","4.4877"
"39.2000","0.8381","4.5034"
"39.4000","0.8411","4.5128"
"39.6000","0.8447","4.5275"
"39.8000","0.8479","4.5376"
"40.0000","0.8511","4.5493"
"40.2000","0.8546","4.5629"
"40.4000","0.8580","4.5740"
"40.6000","0.8613","4.5859"
"40.8000","0.8646","4.5978"
"41.0000","0.8679","4.6081"
"41.2000","0.8713","4.6221"
"41.4000","0.8749","4.6352"
"41.6000","0.8779","4.6444"
"41.8000","0.8813","4.6579"
"42.0000","0.8846","4.6697"
"42.2000","0.8878","4.6806"
"42.4000","0.8916","4.6959"
"42.6000","0.8944","4.7044"
"42.8000","0.8979","4.7171"
"43.0000","0.9013","4.7283"
"43.2000","0.9044","4.7381"
"43.4000","0.9084","4.7548"
"43.6000","0.9110","4.7609"
"43.8000","0.9146","4.7748"
"44.0000","0.9180","4.7872"
"44.2000","0.9211","4.7973"
"44.4000","0.9251","4.8123"
"44.6000","0.9276","4.8188"
"44.8000","0.9314","4.8341"
"45.0000","0.9347","4.8458"
"45.2000","0.9376","4.8533"
"45.4000","0.9418","4.8709"
"45.6000","0.9443","4.8756"
"45.8000","0.9479","4.8896"
"46.0000","0.9514","4.9011"
"46.2000","0.9544","4.9108"
"46.4000","0.9583","4.9265"
"46.6000","0.9610","4.9333"
"46.8000","0.9648","4.9493"
"47.0000","0.9680","4.9593"
"47.2000","0.9710","4.9681"
"47.4000","0.9748","4.9840"
"47.6000","0.9778","4.9922"
"47.8000","0.9814","5.0063"
"48.0000","0.9847","5.0163"
"48.2000","0.9878","5.0271"
"48.4000","0.9914","5.0411"
"48.6000","0.9946","5.0509"
"48.8000","0.9981","5.0634"
"49.0000","1.0013","5.0739"
"49.2000","1.0044","5.0851"
"49.4000","1.0079","5.0969"
"49.6000","1.0114","5.1109"
"49.8000","1.0147","5.1212"
"50.0000","1.0179","5.1314"
"50.2000","1.0213","5.1437"
"50.4000","1.0246","5.1543"
"50.6000","1.0282","5.1680"
"50.8000","1.0311","5.1764"
"51.0000","1.0347","5.1904"
"51.2000","1.0380","5.2014"
"51.4000","1.0410","5.2104"
"51.6000","1.0450","5.2272"
"51.8000","1.0477","5.2334"
"52.0000","1.0513","5.2473"
"52.2000","1.0547","5.2585"
"52.4000","1.0577","5.2687"
"52.6000","1.0619","5.2860"
"52.8000","1.0642","5.2895"
"53.0000","1.0679","5.3047"
"53.2000","1.0715","5.3170"
"53.4000","1.0744","5.3263"
"53.6000","1.0785","5.3429"
"53.8000","1.0809","5.3477"
"54.0000","1.0846","5.3612"
"54.2000","1.0881","5.3732"
"54.4000","1.0909","5.3809"
"54.6000","1.0952","5.3998"
"54.8000","1.0976","5.4038"
"55.0000","1.1014","5.4183"
"55.2000","1.1048","5.4302"
"55.4000","1.1076","5.4377"
"55.6000","1.1117","5.4539"
"55.8000","1.1144","5.4596"
"56.0000","1.1181","5.4745"
"56.2000","1.1214","5.4856"
"56.4000","1.1243","5.4933"
"56.6000","1.1282","5.5076"
"56.8000","1.1312","5.5158"
"57.0000","1.1347","5.5272"
"57.2000","1.1379","5.5334"
"57.4000","1.1410","5.5375"
"57.6000","1.1447","5.5498"
"57.8000","1.1481","5.5599"
"58.0000","1.1513","5.5712"
"58.2000","1.1547","5.5825"
"58.4000","1.1579","5.5945"
"58.6000","1.1613","5.6045"
"58.8000","1.1649","5.6180"
"59.0000","1.1679","5.6272"
"59.2000","1.1712","5.6382"
"59.4000","1.1747","5.6504"
"59.6000","1.1779","5.6608"
"59.8000","1.1816","5.6745"
"60.0000","1.1844","5.6802"
"60.2000","1.1879","5.6921"
"60.4000","1.1915","5.7053"
"60.6000","1.1944","5.7137"
"60.8000","1.1984","5.7296"
"61.0000","1.2010","5.7349"
"61.2000","1.2046","5.7484"
"61.4000","1.2082","5.7616"
"61.6000","1.2110","5.7686"
"61.8000","1.2152","5.7865"
"62.0000","1.2176","5.7911"
"62.2000","1.2212","5.8045"
"62.4000","1.2249","5.8179"
"62.6000","1.2276","5.8252"
"62.8000","1.2317","5.8409"
"63.0000","1.2343","5.8469"
"63.2000","1.2379","5.8613"
"63.4000","1.2414","5.8731"
"63.6000","1.2442","5.8814"
"63.8000","1.2483","5.8980"
"64.0000","1.2511","5.9059"
"64.2000","1.2546","5.9190"
"64.4000","1.2581","5.9305"
"64.6000","1.2610","5.9392"
"64.8000","1.2649","5.9544"
"65.0000","1.2679","5.9629"
"65.2000","1.2714","5.9754"
"65.4000","1.2747","5.9870"
"65.6000","1.2777","5.9966"
"65.8000","1.2814","6.0100"
"66.0000","1.2847","6.0195"
"66.2000","1.2880","6.0315"
"66.4000","1.2912","6.0418"
"66.6000","1.2945","6.0537"
"66.8000","1.2980","6.0658"
"67.0000","1.3014","6.0776"
"67.2000","1.3046","6.0873"
"67.4000","1.3079","6.0991"
"67.6000","1.3114","6.1112"
"67.8000","1.3145","6.1202"
"68.0000","1.3182","6.1343"
"68.2000","1.3211","6.1432"
"68.4000","1.3245","6.1555"
"68.6000","1.3282","6.1682"
"68.8000","1.3311","6.1759"
"69.0000","1.3349","6.1919"
"69.2000","1.3377","6.1982"
"69.4000","1.3411","6.2119"
"69.6000","1.3449","6.2257"
"69.8000","1.3477","6.2334"
"70.0000","1.3517","6.2484"
"70.2000","1.3544","6.2537"
"70.4000","1.3579","6.2681"
"70.6000","1.3617","6.2821"
"70.8000","1.3643","6.2889"
"71.0000","1.3684","6.3053"
"71.2000","1.3710","6.3118"
"71.4000","1.3745","6.3230"
"71.6000","1.3783","6.3370"
"71.8000","1.3809","6.3443"
"72.0000","1.3850","6.3608"
"72.2000","1.3878","6.3676"
"72.4000","1.3912","6.3792"
"72.6000","1.3948","6.3925"
"72.8000","1.3976","6.4003"
"73.0000","1.4017","6.4157"
"73.2000","1.4046","6.4238"
"73.4000","1.4079","6.4356"
"73.6000","1.4114","6.4476"
"73.8000","1.4143","6.4561"
"74.0000","1.4181","6.4710"
"74.2000","1.4213","6.4809"
"74.4000","1.4246","6.4913"
"74.6000","1.4280","6.5019"
"74.8000","1.4312","6.5128"
"75.0000","1.4347","6.5243"
"75.2000","1.4380","6.5359"
"75.4000","1.4412","6.5461"
"75.6000","1.4446","6.5585"
"75.8000","1.4481","6.5695"
"76.0000","1.4512","6.5795"
"76.2000","1.4548","6.5928"
"76.4000","1.4578","6.6012"
"76.6000","1.4612","6.6130"
"76.8000","1.4649","6.6272"
"77.0000","1.4678","6.6357"
"77.2000","1.4715","6.6482"
"77.4000","1.4744","6.6552"
"77.6000","1.4778","6.6675"
"77.8000","1.4817","6.6821"
"78.0000","1.4844","6.6895"
"78.2000","1.4882","6.7029"
"78.4000","1.4911","6.7109"
"78.6000","1.4945","6.7229"
"78.8000","1.4984","6.7360"
"79.0000","1.5010","6.7429"
"79.2000","1.5050","6.7589"
"79.4000","1.5077","6.7656"
"79.6000","1.5111","6.7775"
"79.8000","1.5150","6.7925"
"80.0000","1.5176","6.7977"
"80.2000","1.5216","6.8130"
"80.4000","1.5244","6.8202"
"80.6000","1.5278","6.8320"
"80.8000","1.5316","6.8460"
"81.0000","1.5342","6.8519"
"81.2000","1.5383","6.8674"
"81.4000","1.5412","6.8751"
"81.6000","1.5445","6.8856"
"81.8000","1.5483","6.8985"
"82.0000","1.5510","6.9052"
"82.2000","1.5549","6.9197"
"82.4000","1.5579","6.9285"
"82.6000","1.5612","6.9387"
"82.8000","1.5648","6.9518"
"83.0000","1.5677","6.9593"
"83.2000","1.5715","6.9725"
"83.4000","1.5747","6.9821"
"83.6000","1.5779","6.9929"
"83.8000","1.5813","7.0037"
"84.0000","1.5845","7.0142"
"84.2000","1.5880","7.0254"
"84.4000","1.5914","7.0373"
"84.6000","1.5946","7.0449"
"84.8000","1.5980","7.0548"
"85.0000","1.6014","7.0669"
"85.2000","1.6045","7.0758"
"85.4000","1.6081","7.0882"
"85.6000","1.6111","7.0965"
"85.8000","1.6145","7.1080"
"86.0000","1.6183","7.1217"
"86.2000","1.6211","7.1284"
"86.4000","1.6248","7.1410"
"86.6000","1.6278","7.1497"
"86.8000","1.6311","7.1603"
"87.0000","1.6351","7.1761"
"87.2000","1.6376","7.1804"
"87.4000","1.6416","7.1960"
"87.6000","1.6444","7.2024"
"87.8000","1.6479","7.2143"
"88.0000","1.6519","7.2294"
"88.2000","1.6542","7.2340"
"88.4000","1.6582","7.2481"
"88.6000","1.6611","7.2556"
"88.8000","1.6645","7.2669"
"89.0000","1.6685","7.2813"
"89.2000","1.6709","7.2848"
"89.4000","1.6749","7.3001"
"89.6000","1.6779","7.3085"
"89.8000","1.6811","7.3185"
"90.0000","1.6848","7.3319"
"90.2000","1.6875","7.3375"
"90.4000","1.6917","7.3538"
"90.6000","1.6947","7.3612"
"90.8000","1.6979","7.3714"
"91.0000","1.7015","7.3839"
"91.2000","1.7043","7.3913"
"91.4000","1.7081","7.4054"
"91.6000","1.7113","7.4149"
"91.8000","1.7146","7.4248"
"92.0000","1.7180","7.4364"
"92.2000","1.7211","7.4455"
"92.4000","1.7247","7.4576"
"92.6000","1.7280","7.4680"
"92.8000","1.7312","7.4768"
"93.0000","1.7346","7.4877"
"93.2000","1.7380","7.4994"
"93.4000","1.7413","7.5098"
"93.6000","1.7447","7.5210"
"93.8000","1.7479","7.5299"
"94.0000","1.7512","7.5405"
"94.2000","1.7549","7.5539"
"94.4000","1.7578","7.5611"
"94.6000","1.7614","7.5733"
"94.8000","1.7645","7.5825"
"95.0000","1.7678","7.5937"
"95.2000","1.7718","7.6074"
"95.4000","1.7743","7.6124"
"95.6000","1.7780","7.6248"
"95.8000","1.7812","7.6346"
"96.0000","1.7844","7.6443"
"96.2000","1.7885","7.6604"
"96.4000","1.7909","7.6642"
"96.6000","1.7949","7.6796"
"96.8000","1.7979","7.6874"
"97.0000","1.8010","7.6962"
"97.2000","1.8052","7.7131"
"97.4000","1.8075","7.7170"
"97.6000","1.8115","7.7315"
"97.8000","1.8146","7.7401"
"98.0000","1.8177","7.7496"
"98.2000","1.8217","7.7642"
"98.4000","1.8242","7.7692"
"98.6000","1.8282","7.7843"
"98.8000","1.8313","7.7926"
"99.0000","1.8344","7.8017"
"99.2000","1.8382","7.8157"
"99.4000","1.8410","7.8223"
"99.6000","1.8449","7.8371"
"99.8000","1.8480","7.8451"
"100.0000","1.8511","7.8546"
"100.2000","1.8548","7.8661"
"100.4000","1.8578","7.8754"
"100.6000","1.8614","7.8870"
"100.8000","1.8646","7.8966"
"101.0000","1.8677","7.9058"
"101.2000","1.8714","7.9193"
"101.4000","1.8746","7.9282"
"101.6000","1.8780","7.9383"
"101.8000","1.8814","7.9496"
"102.0000","1.8845","7.9588"
"102.2000","1.8879","7.9695"
"102.4000","1.8915","7.9824"
"102.6000","1.8945","7.9912"
"102.8000","1.8980","8.0034"
"103.0000","1.9013","8.0120"
"103.2000","1.9045","8.0217"
"103.4000","1.9083","8.0358"
"103.6000","1.9110","8.0415"
"103.8000","1.9146","8.0550"
"104.0000","1.9179","8.0642"
"104.2000","1.9210","8.0741"
"104.4000","1.9252","8.0896"
"104.6000","1.9275","8.0931"
"104.8000","1.9313","8.1069"
"105.0000","1.9346","8.1171"
"105.2000","1.9377","8.1264"
"105.4000","1.9419","8.1418"
"105.6000","1.9442","8.1456"
"105.8000","1.9481","8.1599"
"106.0000","1.9513","8.1691"
"106.2000","1.9544","8.1776"
"106.4000","1.9585","8.1942"
"106.6000","1.9609","8.1983"
"106.8000","1.9648","8.2123"
"107.0000","1.9680","8.2223"
"107.2000","1.9710","8.2308"
"107.4000","1.9750","8.2445"
"107.6000","1.9777","8.2503"
"107.8000","1.9815","8.2645"
"108.0000","1.9846","8.2741"
"108.2000","1.9877","8.2823"
"108.4000","1.9915","8.2964"
"108.6000","1.9945","8.3033"
"108.8000","1.9982","8.3174"
"109.0000","2.0013","8.3256"
"109.2000","2.0044","8.3352"
"109.4000","2.0080","8.3468"
"109.6000","2.0112","8.3574"
"109.8000","2.0147","8.3692"
"110.0000","2.0180","8.3789"
"110.2000","2.0212","8.3884"
"110.4000","2.0246","8.4004"
"110.6000","2.0281","8.4115"
"110.8000","2.0312","8.4197"
"111.0000","2.0347","8.4311"
"111.2000","2.0380","8.4410"
"111.4000","2.0412","8.4501"
"111.6000","2.0449","8.4640"
"111.8000","2.0478","8.4707"
"112.0000","2.0512","8.4828"
"112.2000","2.0547","8.4941"
"112.4000","2.0578","8.5029"
"112.6000","2.0617","8.5173"
"112.8000","2.0643","8.5224"
"113.0000","2.0679","8.5358"
"113.2000","2.0714","8.5461"
"113.4000","2.0744","8.5553"
"113.6000","2.0785","8.5702"
"113.8000","2.0809","8.5740"
"114.0000","2.0847","8.5874"
"114.2000","2.0880","8.5983"
"114.4000","2.0910","8.6066"
"114.6000","2.0951","8.6215"
"114.8000","2.0976","8.6259"
"115.0000","2.1014","8.6401"
"115.2000","2.1047","8.6497"
"115.4000","2.1077","8.6578"
"115.6000","2.1117","8.6731"
"115.8000","2.1143","8.6790"
"116.0000","2.1181","8.6915"
"116.2000","2.1213","8.7009"
"116.4000","2.1244","8.7081"
"116.6000","2.1282","8.7225"
"116.8000","2.1311","8.7286"
"117.0000","2.1348","8.7409"
"117.2000","2.1380","8.7506"
"117.4000","2.1411","8.7590"
"117.6000","2.1449","8.7730"
"117.8000","2.1478","8.7805"
"118.0000","2.1515","8.7928"
"118.2000","2.1546","8.8019"
"118.4000","2.1578","8.8109"
"118.6000","2.1613","8.8217"
"118.8000","2.1646","8.8320"
"119.0000","2.1680","8.8422"
"119.2000","2.1713","8.8526"
"119.4000","2.1746","8.8621"
"119.6000","2.1779","8.8730"
"119.8000","2.1815","8.8852"
"120.0000","2.1846","8.8928"
"120.2000","2.1879","8.9029"
"120.4000","2.1913","8.9147"
"120.6000","2.1945","8.9233"
"120.8000","2.1983","8.9367"
"121.0000","2.2010","8.9428"
"121.2000","2.2046","8.9552"
"121.4000","2.2081","8.9663"
"121.6000","2.2111","8.9738"
"121.8000","2.2150","8.9871"
"122.0000","2.2176","8.9921"
"122.2000","2.2212","9.0033"
"122.4000","2.2248","9.0156"
"122.6000","2.2278","9.0220"
"122.8000","2.2317","9.0360"
"123.0000","2.2342","9.0402"
"123.2000","2.2380","9.0526"
"123.4000","2.2415","9.0623"
"123.6000","2.2444","9.0697"
"123.8000","2.2484","9.0844"
"124.0000","2.2509","9.0885"
"124.2000","2.2547","9.1019"
"124.4000","2.2581","9.1129"
"124.6000","2.2610","9.1197"
"124.8000","2.2650","9.1338"
"125.0000","2.2677","9.1387"
"125.2000","2.2714","9.1530"
"125.4000","2.2748","9.1629"
"125.6000","2.2777","9.1690"
"125.8000","2.2815","9.1829"
"126.0000","2.2844","9.1892"
"126.2000","2.2881","9.2022"
"126.4000","2.2914","9.2107"
"126.6000","2.2943","9.2181"
"126.8000","2.2981","9.2315"
"127.0000","2.3013","9.2399"
"127.2000","2.3046","9.2497"
"127.4000","2.3079","9.2594"
"127.6000","2.3112","9.2687"
"127.8000","2.3146","9.2797"
"128.0000","2.3182","9.2912"
"128.2000","2.3213","9.2994"
"128.4000","2.3247","9.3102"
"128.6000","2.3280","9.3198"
"128.8000","2.3312","9.3293"
"129.0000","2.3349","9.3417"
"129.2000","2.3378","9.3490"
"129.4000","2.3412","9.3600"
"129.6000","2.3447","9.3712"
"129.8000","2.3478","9.3785"
"130.0000","2.3516","9.3923"
"130.2000","2.3543","9.3987"
"130.4000","2.3579","9.4096"
"130.6000","2.3616","9.4229"
"130.8000","2.3644","9.4297"
"131.0000","2.3684","9.4442"
"131.2000","2.3709","9.4488"
"131.4000","2.3746","9.4613"
"131.6000","2.3782","9.4729"
"131.8000","2.3810","9.4802"
"132.0000","2.3852","9.4960"
"132.2000","2.3876","9.4994"
"132.4000","2.3912","9.5115"
"132.6000","2.3948","9.5238"
"132.8000","2.3976","9.5297"
"133.0000","2.4017","9.5443"
"133.2000","2.4043","9.5500"
"133.4000","2.4080","9.5627"
"133.6000","2.4115","9.5742"
"133.8000","2.4143","9.5803"
"134.0000","2.4183","9.5954"
"134.2000","2.4212","9.6020"
"134.4000","2.4247","9.6134"
"134.6000","2.4280","9.6225"
"134.8000","2.4310","9.6314"
"135.0000","2.4349","9.6452"
"135.2000","2.4379","9.6528"
"135.4000","2.4413","9.6636"
"135.6000","2.4446","9.6738"
"135.8000","2.4478","9.6824"
"136.0000","2.4513","9.6934"
"136.2000","2.4547","9.7035"
"136.4000","2.4580","9.7140"
"136.6000","2.4613","9.7231"
"136.8000","2.4646","9.7337"
"137.0000","2.4680","9.7438"
"137.2000","2.4715","9.7553"
"137.4000","2.4744","9.7632"
"137.6000","2.4779","9.7743"
"137.8000","2.4816","9.7856"
"138.0000","2.4845","9.7935"
"138.2000","2.4882","9.8058"
"138.4000","2.4910","9.8125"
"138.6000","2.4944","9.8229"
"138.8000","2.4983","9.8370"
"139.0000","2.5010","9.8433"
"139.2000","2.5050","9.8564"
"139.4000","2.5076","9.8609"
"139.6000","2.5112","9.8748"
"139.8000","2.5150","9.8864"
"140.0000","2.5177","9.8925"
"140.2000","2.5217","9.9073"
"140.4000","2.5243","9.9125"
"140.6000","2.5279","9.9239"
"140.8000","2.5316","9.9360"
"141.0000","2.5343","9.9417"
"141.2000","2.5383","9.9573"
"141.4000","2.5411","9.9627"
"141.6000","2.5445","9.9740"
"141.8000","2.5482","9.9855"
"142.0000","2.5509","9.9909"
"142.2000","2.5549","10.0062"
"142.4000","2.5579","10.0129"
"142.6000","2.5612","10.0220"
"142.8000","2.5649","10.0340"
"143.0000","2.5677","10.0355"
"143.2000","2.5716","10.0477"
"143.4000","2.5745","10.0531"
"143.6000","2.5779","10.0614"
"143.8000","2.5814","10.0702"
"144.0000","2.5844","10.0772"
"144.2000","2.5881","10.0879"
"144.4000","2.5913","10.0956"
"144.6000","2.5945","10.1041"
"144.8000","2.5980","10.1152"
"145.0000","2.6012","10.1230"
"145.2000","2.6047","10.1328"
"145.4000","2.6079","10.1415"
"145.6000","2.6112","10.1502"
"145.8000","2.6146","10.1608"
"146.0000","2.6183","10.1711"
"146.2000","2.6212","10.1771"
"146.4000","2.6248","10.1881"
"146.6000","2.6278","10.1956"
"146.8000","2.6312","10.2048"
"147.0000","2.6350","10.2175"
"147.2000","2.6377","10.2223"
"147.4000","2.6415","10.2340"
"147.6000","2.6444","10.2408"
"147.8000","2.6478","10.2498"
"148.0000","2.6517","10.2613"
"148.2000","2.6543","10.2652"
"148.4000","2.6583","10.2789"
"148.6000","2.6611","10.2835"
"148.8000","2.6645","10.2933"
"149.0000","2.6684","10.3052"
"149.2000","2.6709","10.3090"
"149.4000","2.6750","10.3241"
"149.6000","2.6778","10.3295"
"149.8000","2.6811","10.3384"
"150.0000","2.6850","10.3511"
"150.2000","2.6876","10.3563"
"150.4000","2.6916","10.3700"
"150.6000","2.6945","10.3762"
"150.8000","2.6978","10.3868"
"151.0000","2.7015","10.3986"
"151.2000","2.7043","10.4057"
"151.4000","2.7083","10.4186"
"151.6000","2.7112","10.4255"
"151.8000","2.7146","10.4366"
"152.0000","2.7181","10.4467"
"152.2000","2.7210","10.4548"
"152.4000","2.7248","10.4672"
"152.6000","2.7280","10.4764"
"152.8000","2.7312","10.4854"
"153.0000","2.7346","10.4951"
"153.2000","2.7378","10.5032"
"153.4000","2.7413","10.5151"
"153.6000","2.7447","10.5256"
"153.8000","2.7479","10.5343"
"154.0000","2.7513","10.5445"
"154.2000","2.7547","10.5553"
"154.4000","2.7580","10.5649"
"154.6000","2.7614","10.5743"
"154.8000","2.7644","10.5821"
"155.0000","2.7679","10.5941"
"155.2000","2.7716","10.6058"
"155.4000","2.7744","10.6127"
"155.6000","2.7781","10.6246"
"155.8000","2.7811","10.6322"
"156.0000","2.7844","10.6420"
"156.2000","2.7883","10.6556"
"156.4000","2.7910","10.6616"
"156.6000","2.7948","10.6749"
"156.8000","2.7977","10.6819"
"157.0000","2.8011","10.6920"
"157.2000","2.8052","10.7067"
"157.4000","2.8076","10.7106"
"157.6000","2.8114","10.7247"
"157.8000","2.8145","10.7327"
"158.0000","2.8178","10.7424"
"158.2000","2.8218","10.7566"
"158.4000","2.8242","10.7607"
"158.6000","2.8283","10.7747"
"158.8000","2.8311","10.7813"
"159.0000","2.8344","10.7908"
"159.2000","2.8384","10.8055"
"159.4000","2.8409","10.8101"
"159.6000","2.8449","10.8232"
"159.8000","2.8479","10.8312"
"160.0000","2.8512","10.8416"
"160.2000","2.8549","10.8538"
"160.4000","2.8576","10.8597"
"160.6000","2.8615","10.8733"
"160.8000","2.8647","10.8820"
"161.0000","2.8678","10.8901"
"161.2000","2.8714","10.9008"
"161.4000","2.8744","10.9082"
"161.6000","2.8781","10.9211"
"161.8000","2.8813","10.9293"
"162.0000","2.8844","10.9382"
"162.2000","2.8881","10.9491"
"162.4000","2.8912","10.9574"
"162.6000","2.8947","10.9683"
"162.8000","2.8981","10.9769"
"163.0000","2.9012","10.9843"
"163.2000","2.9046","10.9943"
"163.4000","2.9081","11.0049"
"163.6000","2.9112","11.0129"
"163.8000","2.9148","11.0236"
"164.0000","2.9178","11.0305"
"164.2000","2.9213","11.0410"
"164.4000","2.9250","11.0522"
"164.6000","2.9277","11.0582"
"164.8000","2.9313","11.0695"
"165.0000","2.9345","11.0783"
"165.2000","2.9378","11.0871"
"165.4000","2.9418","11.1014"
"165.6000","2.9444","11.1057"
"165.8000","2.9482","11.1183"
"166.0000","2.9511","11.1243"
"166.2000","2.9544","11.1339"
"166.4000","2.9585","11.1477"
"166.6000","2.9609","11.1508"
"166.8000","2.9649","11.1646"
"167.0000","2.9678","11.1708"
"167.2000","2.9711","11.1803"
"167.4000","2.9751","11.1931"
"167.6000","2.9775","11.1963"
"167.8000","2.9814","11.2095"
"168.0000","2.9846","11.2179"
"168.2000","2.9877","11.2249"
"168.4000","2.9916","11.2386"
"168.6000","2.9943","11.2429"
"168.8000","2.9983","11.2562"
"169.0000","3.0012","11.2618"
"169.2000","3.0044","11.2687"
"169.4000","3.0083","11.2824"
"169.6000","3.0110","11.2867"
"169.8000","3.0149","11.2973"
"170.0000","3.0181","11.3040"
"170.2000","3.0211","11.3102"
"170.4000","3.0247","11.3187"
"170.6000","3.0278","11.3244"
"170.8000","3.0314","11.3333"
"171.0000","3.0346","11.3388"
"171.2000","3.0378","11.3441"
"171.4000","3.0413","11.3515"
"171.6000","3.0447","11.3596"
"171.8000","3.0480","11.3665"
"172.0000","3.0513","11.3737"
"172.2000","3.0546","11.3811"
"172.4000","3.0580","11.3888"
"172.6000","3.0616","11.3990"
"172.8000","3.0644","11.4040"
"173.0000","3.0680","11.4135"
"173.2000","3.0712","11.4207"
"173.4000","3.0743","11.4268"
"173.6000","3.0785","11.4396"
"173.8000","3.0810","11.4420"
"174.0000","3.0847","11.4513"
"174.2000","3.0879","11.4576"
"174.4000","3.0911","11.4644"
"174.6000","3.0952","11.4777"
"174.8000","3.0976","11.4794"
"175.0000","3.1015","11.4912"
"175.2000","3.1046","11.4978"
"175.4000","3.1077","11.5049"
"175.6000","3.1117","11.5179"
"175.8000","3.1143","11.5219"
"176.0000","3.1182","11.5328"
"176.2000","3.1212","11.5394"
"176.4000","3.1243","11.5467"
"176.6000","3.1285","11.5616"
"176.8000","3.1309","11.5648"
"177.0000","3.1348","11.5770"
"177.2000","3.1381","11.5838"
"177.4000","3.1411","11.5902"
"177.6000","3.1450","11.6022"
"177.8000","3.1477","11.6061"
"178.0000","3.1515","11.6178"
"178.2000","3.1547","11.6244"
"178.4000","3.1577","11.6317"
"178.6000","3.1615","11.6440"
"178.8000","3.1645","11.6502"
"179.0000","3.1680","11.6606"
"179.2000","3.1712","11.6689"
"179.4000","3.1746","11.6775"
"179.6000","3.1780","11.6876"
"179.8000","3.1813","11.6960"
"180.0000","3.1846","11.7048"
"180.2000","3.1880","11.7145"
"180.4000","3.1913","11.7229"
"180.6000","3.1945","11.7306"
"180.8000","3.1982","11.7428"
"181.0000","3.2012","11.7488"
"181.2000","3.2046","11.7600"
"181.4000","3.2080","11.7692"
"181.6000","3.2112","11.7760"
"181.8000","3.2150","11.7886"
"182.0000","3.2176","11.7931"
"182.2000","3.2213","11.8042"
"182.4000","3.2247","11.8127"
"182.6000","3.2277","11.8204"
"182.8000","3.2317","11.8338"
"183.0000","3.2343","11.8382"
"183.2000","3.2380","11.8487"
"183.4000","3.2413","11.8576"
"183.6000","3.2444","11.8651"
"183.8000","3.2485","11.8788"
"184.0000","3.2509","11.8823"
"184.2000","3.2547","11.8943"
"184.4000","3.2580","11.9035"
"184.6000","3.2610","11.9102"
"184.8000","3.2651","11.9242"
"185.0000","3.2676","11.9276"
"185.2000","3.2714","11.9397"
"185.4000","3.2747","11.9470"
"185.6000","3.2777","11.9549"
"185.8000","3.2816","11.9679"
"186.0000","3.2843","11.9723"
"186.2000","3.2881","11.9845"
"186.4000","3.2913","11.9910"
"186.6000","3.2944","11.9991"
"186.8000","3.2981","12.0101"
"187.0000","3.3011","12.0164"
"187.2000","3.3048","12.0277"
"187.4000","3.3079","12.0353"
"187.6000","3.3111","12.0433"
"187.8000","3.3146","12.0529"
"188.0000","3.3180","12.0617"
"188.2000","3.3214","12.0710"
"188.4000","3.3246","12.0792"
"188.6000","3.3278","12.0864"
"188.8000","3.3313","12.0963"
"189.0000","3.3348","12.1057"
"189.2000","3.3379","12.1122"
"189.4000","3.3414","12.1226"
"189.6000","3.3446","12.1298"
"189.8000","3.3479","12.1385"
"190.0000","3.3516","12.1501"
"190.2000","3.3544","12.1559"
"190.4000","3.3579","12.1669"
"190.6000","3.3612","12.1759"
"190.8000","3.3644","12.1833"
"191.0000","3.3684","12.1966"
"191.2000","3.3710","12.2022"
"191.4000","3.3746","12.2127"
"191.6000","3.3781","12.2231"
"191.8000","3.3811","12.2303"
"192.0000","3.3850","12.2445"
"192.2000","3.3876","12.2488"
"192.4000","3.3915","12.2607"
"192.6000","3.3947","12.2697"
"192.8000","3.3977","12.2764"
"193.0000","3.4018","12.2911"
"193.2000","3.4043","12.2946"
"193.4000","3.4079","12.3062"
"193.6000","3.4114","12.3166"
"193.8000","3.4143","12.3236"
"194.0000","3.4183","12.3372"
"194.2000","3.4210","12.3417"
"194.4000","3.4247","12.3529"
"194.6000","3.4281","12.3631"
"194.8000","3.4309","12.3694"
"195.0000","3.4350","12.3832"
"195.2000","3.4378","12.3895"
"195.4000","3.4415","12.4012"
"195.6000","3.4447","12.4097"
"195.8000","3.4477","12.4163"
"196.0000","3.4515","12.4278"
"196.2000","3.4545","12.4356"
"196.4000","3.4579","12.4463"
"196.6000","3.4613","12.4549"
"196.8000","3.4644","12.4637"
"197.0000","3.4681","12.4749"
"197.2000","3.4713","12.4844"
"197.4000","3.4747","12.4926"
"197.6000","3.4780","12.5021"
"197.8000","3.4812","12.5112"
"198.0000","3.4846","12.5222"
"198.2000","3.4882","12.5323"
"198.4000","3.4912","12.5407"
"198.6000","3.4946","12.5501"
"198.8000","3.4981","12.5616"
"199.0000","3.5012","12.5694"
"199.2000","3.5048","12.5811"
"199.4000","3.5077","12.5873"
"199.6000","3.5113","12.5991"
"199.8000","3.5148","12.6101"
"200.0000","3.5178","12.6175"
"200.2000","3.5217","12.6303"
"200.4000","3.5243","12.6354"
"200.6000","3.5278","12.6467"
"200.8000","3.5316","12.6595"
"201.0000","3.5344","12.6648"
"201.2000","3.5385","12.6793"
"201.4000","3.5410","12.6836"
"201.6000","3.5447","12.6950"
"201.8000","3.5482","12.7061"
"202.0000","3.5509","12.7118"
"202.2000","3.5551","12.7273"
"202.4000","3.5576","12.7314"
"202.6000","3.5613","12.7429"
"202.8000","3.5648","12.7528"
"203.0000","3.5676","12.7600"
"203.2000","3.5716","12.7728"
"203.4000","3.5744","12.7794"
"203.6000","3.5781","12.7912"
"203.8000","3.5814","12.8019"
"204.0000","3.5844","12.8086"
"204.2000","3.5882","12.8204"
"204.4000","3.5912","12.8274"
"204.6000","3.5948","12.8388"
"204.8000","3.5980","12.8481"
"205.0000","3.6010","12.8549"
"205.2000","3.6047","12.8668"
"205.4000","3.6079","12.8754"
"205.6000","3.6113","12.8858"
"205.8000","3.6147","12.8952"
"206.0000","3.6179","12.9031"
"206.2000","3.6213","12.9131"
"206.4000","3.6247","12.9238"
"206.6000","3.6280","12.9326"
"206.8000","3.6313","12.9421"
"207.0000","3.6347","12.9522"
"207.2000","3.6379","12.9611"
"207.4000","3.6416","12.9725"
"207.6000","3.6444","12.9785"
"207.8000","3.6478","12.9881"
"208.0000","3.6515","13.0005"
"208.2000","3.6544","13.0075"
"208.4000","3.6582","13.0204"
"208.6000","3.6610","13.0264"
"208.8000","3.6646","13.0374"
"209.0000","3.6682","13.0492"
"209.2000","3.6710","13.0544"
"209.4000","3.6751","13.0685"
"209.6000","3.6776","13.0731"
"209.8000","3.6812","13.0842"
"210.0000","3.6850","13.0962"
"210.2000","3.6877","13.1015"
"210.4000","3.6918","13.1157"
"210.6000","3.6943","13.1201"
"210.8000","3.6979","13.1316"
"211.0000","3.7016","13.1432"
"211.2000","3.7042","13.1477"
"211.4000","3.7083","13.1625"
"211.6000","3.7111","13.1684"
"211.8000","3.7145","13.1788"
"212.0000","3.7181","13.1899"
"212.2000","3.7210","13.1956"
"212.4000","3.7250","13.2108"
"212.6000","3.7279","13.2169"
"212.8000","3.7312","13.2254"
"213.0000","3.7347","13.2361"
"213.2000","3.7377","13.2438"
"213.4000","3.7415","13.2555"
"213.6000","3.7446","13.2642"
"213.8000","3.7480","13.2736"
"214.0000","3.7513","13.2836"
"214.2000","3.7545","13.2920"
"214.4000","3.7581","13.3027"
"214.6000","3.7613","13.3117"
"214.8000","3.7645","13.3203"
"215.0000","3.7679","13.3309"
"215.2000","3.7714","13.3413"
"215.4000","3.7745","13.3492"
"215.6000","3.7781","13.3605"
"215.8000","3.7811","13.3683"
"216.0000","3.7846","13.3782"
"216.2000","3.7882","13.3885"
"216.4000","3.7911","13.3949"
"216.6000","3.7947","13.4084"
"216.8000","3.7978","13.4150"
"217.0000","3.8012","13.4260"
"217.2000","3.8050","13.4376"
"217.4000","3.8077","13.4437"
"217.6000","3.8115","13.4561"
"217.8000","3.8144","13.4620"
"218.0000","3.8178","13.4726"
"218.2000","3.8217","13.4859"
"218.4000","3.8243","13.4902"
"218.6000","3.8283","13.5041"
"218.8000","3.8311","13.5101"
"219.0000","3.8345","13.5200"
"219.2000","3.8383","13.5328"
"219.4000","3.8409","13.5376"
"219.6000","3.8449","13.5513"
"219.8000","3.8478","13.5582"
"220.0000","3.8511","13.5679"
"220.2000","3.8549","13.5795"
"220.4000","3.8576","13.5857"
"220.6000","3.8616","13.5996"
"220.8000","3.8645","13.6067"
"221.0000","3.8679","13.6170"
"221.2000","3.8715","13.6281"
"221.4000","3.8743","13.6335"
"221.6000","3.8783","13.6477"
"221.8000","3.8812","13.6537"
"222.0000","3.8846","13.6642"
"222.2000","3.8881","13.6744"
"222.4000","3.8911","13.6823"
"222.6000","3.8947","13.6939"
"222.8000","3.8979","13.7018"
"223.0000","3.9012","13.7112"
"223.2000","3.9047","13.7222"
"223.4000","3.9079","13.7301"
"223.6000","3.9113","13.7403"
"223.8000","3.9147","13.7503"
"224.0000","3.9179","13.7590"
"224.2000","3.9213","13.7689"
"224.4000","3.9248","13.7788"
"224.6000","3.9278","13.7866"
"224.8000","3.9314","13.7979"
"225.0000","3.9344","13.8052"
"225.2000","3.9379","13.8158"
"225.4000","3.9416","13.8272"
"225.6000","3.9444","13.8328"
"225.8000","3.9482","13.8464"
"226.0000","3.9511","13.8529"
"226.2000","3.9544","13.8622"
"226.4000","3.9584","13.8744"
"226.6000","3.9610","13.8795"
"226.8000","3.9650","13.8937"
"227.0000","3.9677","13.8987"
"227.2000","3.9712","13.9090"
"227.4000","3.9751","13.9210"
"227.6000","3.9776","13.9255"
"227.8000","3.9816","13.9393"
"228.0000","3.9844","13.9452"
"228.2000","3.9878","13.9551"
"228.4000","3.9917","13.9678"
"228.6000","3.9942","13.9713"
"228.8000","3.9983","13.9860"
"229.0000","4.0012","13.9916"
"229.2000","4.0044","14.0005"
"229.4000","4.0082","14.0135"
"229.6000","4.0109","14.0181"
"229.8000","4.0150","14.0313"
"230.0000","4.0179","14.0381"
"230.2000","4.0212","14.0478"
"230.4000","4.0248","14.0583"
"230.6000","4.0277","14.0647"
"230.8000","4.0315","14.0761"
"231.0000","4.0347","14.0854"
"231.2000","4.0379","14.0934"
"231.4000","4.0413","14.1038"
"231.6000","4.0445","14.1118"
"231.8000","4.0480","14.1221"
"232.0000","4.0513","14.1316"
"232.2000","4.0544","14.1387"
"232.4000","4.0580","14.1503"
"232.6000","4.0614","14.1602"
"232.8000","4.0646","14.1686"
"233.0000","4.0682","14.1794"
"233.2000","4.0712","14.1860"
"233.4000","4.0745","14.1950"
"233.6000","4.0782","14.2072"
"233.8000","4.0811","14.2130"
"234.0000","4.0848","14.2257"
"234.2000","4.0878","14.2323"
"234.4000","4.0911","14.2415"
"234.6000","4.0951","14.2550"
"234.8000","4.0976","14.2589"
"235.0000","4.1013","14.2705"
"235.2000","4.1045","14.2788"
"235.4000","4.1078","14.2879"
"235.6000","4.1118","14.3020"
"235.8000","4.1143","14.3054"
"236.0000","4.1182","14.3177"
"236.2000","4.1212","14.3248"
"236.4000","4.1244","14.3335"
"236.6000","4.1285","14.3474"
"236.8000","4.1309","14.3506"
"237.0000","4.1349","14.3649"
"237.2000","4.1379","14.3716"
"237.4000","4.1411","14.3798"
"237.6000","4.1450","14.3930"
"237.8000","4.1475","14.3972"
"238.0000","4.1514","14.4098"
"238.2000","4.1546","14.4183"
"238.4000","4.1578","14.4266"
"238.6000","4.1616","14.4386"
"238.8000","4.1643","14.4449"
"239.0000","4.1682","14.4562"
"239.2000","4.1713","14.4648"
"239.4000","4.1744","14.4723"
"239.6000","4.1781","14.4834"
"239.8000","4.1811","14.4912"
"240.0000","4.1847","14.5018"
"240.2000","4.1880","14.5101"
"240.4000","4.1912","14.5181"
"240.6000","4.1946","14.5287"
"240.8000","4.1979","14.5374"
"241.0000","4.2013","14.5469"
"241.2000","4.2048","14.5564"
"241.4000","4.2079","14.5651"
"241.6000","4.2113","14.5745"
"241.8000","4.2148","14.5850"
"242.0000","4.2179","14.5915"
"242.2000","4.2214","14.6015"
"242.4000","4.2245","14.6090"
"242.6000","4.2279","14.6184"
"242.8000","4.2317","14.6305"
"243.0000","4.2343","14.6350"
"243.2000","4.2380","14.6466"
"243.4000","4.2412","14.6540"
"243.6000","4.2444","14.6623"
"243.8000","4.2484","14.6744"
"244.0000","4.2510","14.6793"
"244.2000","4.2548","14.6911"
"244.4000","4.2579","14.6976"
"244.6000","4.2611","14.7063"
"244.8000","4.2652","14.7193"
"245.0000","4.2676","14.7223"
"245.2000","4.2715","14.7348"
"245.4000","4.2746","14.7398"
"245.6000","4.2777","14.7466"
"245.8000","4.2818","14.7586"
"245.8690","4.2826","14.0440"
"245.8710","4.2826","13.4840"
"245.8730","4.2826","12.8179"
"245.8750","4.2826","12.0793"
"245.8770","4.2827","11.2905"
"245.8790","4.2828","10.4665"
"245.8810","4.2829","9.6237"
"245.8830","4.2830","8.7779"