File: DestructiveTests/Tensile/FIBERGLASS TENSILE.is_qtest_Exports/FIBERGLASS TENSILE_2.csv
Time,Displacement,Force
(s),(mm),(kN)
"0.0000","0.0000","0.0119"
"0.2000","0.0004","0.0119"
"0.4000","0.0008","0.0135"
"0.6000","0.0066","0.0157"
"0.8000","0.0089","0.0148"
"1.0000","0.0133","0.0150"
"1.2000","0.0161","0.0151"
"1.4000","0.0197","0.0152"
"1.6000","0.0230","0.0155"
"1.8000","0.0260","0.0156"
"2.0000","0.0299","0.0157"
"2.2000","0.0328","0.0156"
"2.4000","0.0364","0.0157"
"2.6000","0.0396","0.0157"
"2.8000","0.0427","0.0157"
"3.0000","0.0465","0.0157"
"3.2000","0.0495","0.0152"
"3.4000","0.0531","0.0154"
"3.6000","0.0562","0.0156"
"3.8000","0.0595","0.0153"
"4.0000","0.0631","0.0149"
"4.2000","0.0661","0.0151"
"4.4000","0.0699","0.0153"
"4.6000","0.0728","0.0156"
"4.8000","0.0762","0.0154"
"5.0000","0.0796","0.0156"
"5.2000","0.0827","0.0157"
"5.4000","0.0865","0.0152"
"5.6000","0.0895","0.0158"
"5.8000","0.0930","0.0159"
"6.0000","0.0963","0.0159"
"6.2000","0.0995","0.0154"
"6.4000","0.1031","0.0157"
"6.6000","0.1061","0.0160"
"6.8000","0.1097","0.0158"
"7.0000","0.1130","0.0156"
"7.2000","0.1160","0.0157"
"7.4000","0.1197","0.0154"
"7.6000","0.1228","0.0156"
"7.8000","0.1263","0.0156"
"8.0000","0.1295","0.0156"
"8.2000","0.1329","0.0154"
"8.4000","0.1363","0.0152"
"8.6000","0.1396","0.0155"
"8.8000","0.1429","0.0153"
"9.0000","0.1462","0.0156"
"9.2000","0.1497","0.0156"
"9.4000","0.1528","0.0158"
"9.6000","0.1564","0.0160"
"9.8000","0.1595","0.0164"
"10.0000","0.1629","0.0162"
"10.2000","0.1665","0.0164"
"10.4000","0.1694","0.0164"
"10.6000","0.1731","0.0168"
"10.8000","0.1759","0.0167"
"11.0000","0.1795","0.0165"
"11.2000","0.1832","0.0162"
"11.4000","0.1861","0.0170"
"11.6000","0.1899","0.0183"
"11.8000","0.1927","0.0188"
"12.0000","0.1961","0.0203"
"12.2000","0.1999","0.0277"
"12.4000","0.2027","0.0310"
"12.6000","0.2067","0.0344"
"12.8000","0.2094","0.0380"
"13.0000","0.2128","0.0427"
"13.2000","0.2165","0.0485"
"13.4000","0.2193","0.0524"
"13.6000","0.2232","0.0572"
"13.8000","0.2261","0.0605"
"14.0000","0.2295","0.0653"
"14.2000","0.2331","0.0702"
"14.4000","0.2360","0.0755"
"14.6000","0.2400","0.0845"
"14.8000","0.2429","0.0925"
"15.0000","0.2462","0.1027"
"15.2000","0.2497","0.1153"
"15.4000","0.2527","0.1256"
"15.6000","0.2565","0.1429"
"15.8000","0.2596","0.1587"
"16.0000","0.2629","0.1768"
"16.2000","0.2662","0.1944"
"16.4000","0.2695","0.2118"
"16.6000","0.2730","0.2318"
"16.8000","0.2763","0.2499"
"17.0000","0.2795","0.2676"
"17.2000","0.2829","0.2864"
"17.4000","0.2863","0.3060"
"17.6000","0.2896","0.3222"
"17.8000","0.2930","0.3403"
"18.0000","0.2962","0.3573"
"18.2000","0.2996","0.3765"
"18.4000","0.3031","0.3950"
"18.6000","0.3061","0.4099"
"18.8000","0.3098","0.4302"
"19.0000","0.3127","0.4457"
"19.2000","0.3160","0.4640"
"19.4000","0.3199","0.4831"
"19.6000","0.3227","0.4996"
"19.8000","0.3265","0.5195"
"20.0000","0.3294","0.5347"
"20.2000","0.3328","0.5525"
"20.4000","0.3367","0.5745"
"20.6000","0.3393","0.5881"
"20.8000","0.3433","0.6102"
"21.0000","0.3461","0.6244"
"21.2000","0.3493","0.6416"
"21.4000","0.3534","0.6649"
"21.6000","0.3559","0.6776"
"21.8000","0.3598","0.7003"
"22.0000","0.3628","0.7146"
"22.2000","0.3661","0.7332"
"22.4000","0.3699","0.7538"
"22.6000","0.3725","0.7672"
"22.8000","0.3766","0.7916"
"23.0000","0.3796","0.8063"
"23.2000","0.3828","0.8241"
"23.4000","0.3866","0.8451"
"23.6000","0.3893","0.8606"
"23.8000","0.3932","0.8817"
"24.0000","0.3962","0.8966"
"24.2000","0.3995","0.9148"
"24.4000","0.4032","0.9355"
"24.6000","0.4060","0.9499"
"24.8000","0.4097","0.9708"
"25.0000","0.4130","0.9900"
"25.2000","0.4162","1.0065"
"25.4000","0.4195","1.0254"
"25.6000","0.4229","1.0420"
"25.8000","0.4263","1.0616"
"26.0000","0.4297","1.0809"
"26.2000","0.4328","1.0971"
"26.4000","0.4363","1.1153"
"26.6000","0.4397","1.1336"
"26.8000","0.4428","1.1512"
"27.0000","0.4464","1.1718"
"27.2000","0.4495","1.1872"
"27.4000","0.4528","1.2043"
"27.6000","0.4566","1.2265"
"27.8000","0.4594","1.2417"
"28.0000","0.4631","1.2626"
"28.2000","0.4659","1.2765"
"28.4000","0.4694","1.2950"
"28.6000","0.4735","1.3185"
"28.8000","0.4760","1.3309"
"29.0000","0.4799","1.3527"
"29.2000","0.4827","1.3670"
"29.4000","0.4862","1.3865"
"29.6000","0.4901","1.4087"
"29.8000","0.4925","1.4202"
"30.0000","0.4966","1.4429"
"30.2000","0.4994","1.4566"
"30.4000","0.5028","1.4762"
"30.6000","0.5069","1.4987"
"30.8000","0.5092","1.5103"
"31.0000","0.5132","1.5326"
"31.2000","0.5161","1.5471"
"31.4000","0.5194","1.5653"
"31.6000","0.5233","1.5862"
"31.8000","0.5258","1.5981"
"32.0000","0.5300","1.6227"
"32.2000","0.5330","1.6371"
"32.4000","0.5361","1.6546"
"32.6000","0.5397","1.6730"
"32.8000","0.5427","1.6877"
"33.0000","0.5466","1.7102"
"33.2000","0.5497","1.7258"
"33.4000","0.5527","1.7419"
"33.6000","0.5563","1.7610"
"33.8000","0.5595","1.7780"
"34.0000","0.5630","1.7969"
"34.2000","0.5663","1.8145"
"34.4000","0.5695","1.8309"
"34.6000","0.5729","1.8489"
"34.8000","0.5763","1.8661"
"35.0000","0.5797","1.8837"
"35.2000","0.5831","1.9020"
"35.4000","0.5861","1.9172"
"35.6000","0.5896","1.9355"
"35.8000","0.5933","1.9560"
"36.0000","0.5961","1.9693"
"36.2000","0.5996","1.9886"
"36.4000","0.6029","2.0030"
"36.6000","0.6061","2.0213"
"36.8000","0.6100","2.0428"
"37.0000","0.6126","2.0542"
"37.2000","0.6164","2.0742"
"37.4000","0.6195","2.0899"
"37.6000","0.6228","2.1073"
"37.8000","0.6268","2.1284"
"38.0000","0.6293","2.1401"
"38.2000","0.6332","2.1606"
"38.4000","0.6362","2.1745"
"38.6000","0.6394","2.1917"
"38.8000","0.6435","2.2137"
"39.0000","0.6459","2.2243"
"39.2000","0.6498","2.2449"
"39.4000","0.6529","2.2597"
"39.6000","0.6560","2.2755"
"39.8000","0.6599","2.2963"
"40.0000","0.6626","2.3095"
"40.2000","0.6665","2.3293"
"40.4000","0.6696","2.3442"
"40.6000","0.6727","2.3597"
"40.8000","0.6766","2.3803"
"41.0000","0.6794","2.3931"
"41.2000","0.6832","2.4111"
"41.4000","0.6863","2.4283"
"41.6000","0.6894","2.4431"
"41.8000","0.6931","2.4612"
"42.0000","0.6961","2.4758"
"42.2000","0.6997","2.4933"
"42.4000","0.7029","2.5093"
"42.6000","0.7062","2.5256"
"42.8000","0.7096","2.5427"
"43.0000","0.7129","2.5579"
"43.2000","0.7163","2.5749"
"43.4000","0.7196","2.5912"
"43.6000","0.7228","2.6065"
"43.8000","0.7263","2.6244"
"44.0000","0.7298","2.6412"
"44.2000","0.7328","2.6541"
"44.4000","0.7363","2.6717"
"44.6000","0.7396","2.6876"
"44.8000","0.7427","2.7025"
"45.0000","0.7466","2.7220"
"45.2000","0.7494","2.7332"
"45.4000","0.7530","2.7513"
"45.6000","0.7562","2.7671"
"45.8000","0.7594","2.7829"
"46.0000","0.7634","2.8018"
"46.2000","0.7659","2.8120"
"46.4000","0.7696","2.8299"
"46.6000","0.7730","2.8458"
"46.8000","0.7761","2.8606"
"47.0000","0.7801","2.8806"
"47.2000","0.7826","2.8893"
"47.4000","0.7864","2.9097"
"47.6000","0.7896","2.9236"
"47.8000","0.7928","2.9377"
"48.0000","0.7967","2.9570"
"48.2000","0.7993","2.9660"
"48.4000","0.8030","2.9847"
"48.6000","0.8063","2.9999"
"48.8000","0.8093","3.0128"
"49.0000","0.8133","3.0315"
"49.2000","0.8160","3.0387"
"49.4000","0.8198","3.0547"
"49.6000","0.8229","3.0657"
"49.8000","0.8260","3.0744"
"50.0000","0.8299","3.0913"
"50.2000","0.8328","3.1011"
"50.4000","0.8364","3.1167"
"50.6000","0.8396","3.1283"
"50.8000","0.8427","3.1403"
"51.0000","0.8463","3.1571"
"51.2000","0.8497","3.1711"
"51.4000","0.8531","3.1878"
"51.6000","0.8562","3.2001"
"51.8000","0.8595","3.2127"
"52.0000","0.8628","3.2278"
"52.2000","0.8664","3.2440"
"52.4000","0.8696","3.2580"
"52.6000","0.8729","3.2729"
"52.8000","0.8763","3.2858"
"53.0000","0.8796","3.3007"
"53.2000","0.8833","3.3176"
"53.4000","0.8861","3.3290"
"53.6000","0.8895","3.3448"
"53.8000","0.8930","3.3594"
"54.0000","0.8961","3.3722"
"54.2000","0.9000","3.3911"
"54.4000","0.9027","3.4008"
"54.6000","0.9062","3.4160"
"54.8000","0.9097","3.4320"
"55.0000","0.9126","3.4432"
"55.2000","0.9167","3.4634"
"55.4000","0.9193","3.4719"
"55.6000","0.9229","3.4879"
"55.8000","0.9265","3.5034"
"56.0000","0.9293","3.5135"
"56.2000","0.9334","3.5327"
"56.4000","0.9359","3.5419"
"56.6000","0.9396","3.5585"
"56.8000","0.9430","3.5725"
"57.0000","0.9459","3.5846"
"57.2000","0.9501","3.6034"
"57.4000","0.9526","3.6111"
"57.6000","0.9563","3.6278"
"57.8000","0.9597","3.6417"
"58.0000","0.9627","3.6526"
"58.2000","0.9666","3.6712"
"58.4000","0.9694","3.6813"
"58.6000","0.9730","3.6963"
"58.8000","0.9764","3.7097"
"59.0000","0.9794","3.7206"
"59.2000","0.9831","3.7378"
"59.4000","0.9862","3.7502"
"59.6000","0.9897","3.7634"
"59.8000","0.9929","3.7757"
"60.0000","0.9961","3.7889"
"60.2000","0.9997","3.8039"
"60.4000","1.0030","3.8153"
"60.6000","1.0062","3.8296"
"60.8000","1.0096","3.8421"
"61.0000","1.0129","3.8543"
"61.2000","1.0162","3.8676"
"61.4000","1.0198","3.8832"
"61.6000","1.0228","3.8940"
"61.8000","1.0262","3.9072"
"62.0000","1.0296","3.9202"
"62.2000","1.0327","3.9312"
"62.4000","1.0366","3.9487"
"62.6000","1.0393","3.9565"
"62.8000","1.0428","3.9714"
"63.0000","1.0464","3.9859"
"63.2000","1.0494","3.9964"
"63.4000","1.0534","4.0130"
"63.6000","1.0559","4.0212"
"63.8000","1.0595","4.0352"
"64.0000","1.0631","4.0498"
"64.2000","1.0659","4.0583"
"64.4000","1.0701","4.0779"
"64.6000","1.0726","4.0840"
"64.8000","1.0763","4.0983"
"65.0000","1.0798","4.1123"
"65.2000","1.0827","4.1222"
"65.4000","1.0867","4.1394"
"65.6000","1.0892","4.1467"
"65.8000","1.0930","4.1623"
"66.0000","1.0965","4.1750"
"66.2000","1.0992","4.1837"
"66.4000","1.1034","4.2011"
"66.6000","1.1060","4.2093"
"66.8000","1.1096","4.2243"
"67.0000","1.1130","4.2366"
"67.2000","1.1159","4.2460"
"67.4000","1.1199","4.2627"
"67.6000","1.1229","4.2722"
"67.8000","1.1262","4.2852"
"68.0000","1.1298","4.2974"
"68.2000","1.1327","4.3074"
"68.4000","1.1363","4.3214"
"68.6000","1.1396","4.3325"
"68.8000","1.1431","4.3462"
"69.0000","1.1463","4.3575"
"69.2000","1.1494","4.3683"
"69.4000","1.1530","4.3818"
"69.6000","1.1565","4.3948"
"69.8000","1.1595","4.4046"
"70.0000","1.1629","4.4163"
"70.2000","1.1663","4.4307"
"70.4000","1.1695","4.4408"
"70.6000","1.1732","4.4554"
"70.8000","1.1761","4.4649"
"71.0000","1.1795","4.4774"
"71.2000","1.1831","4.4898"
"71.4000","1.1860","4.4997"
"71.6000","1.1899","4.5158"
"71.8000","1.1926","4.5240"
"72.0000","1.1962","4.5370"
"72.2000","1.1999","4.5531"
"72.4000","1.2027","4.5610"
"72.6000","1.2067","4.5761"
"72.8000","1.2092","4.5823"
"73.0000","1.2129","4.5972"
"73.2000","1.2165","4.6099"
"73.4000","1.2193","4.6187"
"73.6000","1.2234","4.6364"
"73.8000","1.2260","4.6425"
"74.0000","1.2295","4.6568"
"74.2000","1.2332","4.6711"
"74.4000","1.2359","4.6790"
"74.6000","1.2400","4.6965"
"74.8000","1.2427","4.7039"
"75.0000","1.2461","4.7169"
"75.2000","1.2498","4.7296"
"75.4000","1.2526","4.7374"
"75.6000","1.2567","4.7550"
"75.8000","1.2595","4.7639"
"76.0000","1.2630","4.7762"
"76.2000","1.2663","4.7887"
"76.4000","1.2693","4.7984"
"76.6000","1.2731","4.8123"
"76.8000","1.2762","4.8236"
"77.0000","1.2796","4.8353"
"77.2000","1.2830","4.8476"
"77.4000","1.2861","4.8566"
"77.6000","1.2897","4.8706"
"77.8000","1.2930","4.8810"
"78.0000","1.2962","4.8915"
"78.2000","1.2996","4.9041"
"78.4000","1.3030","4.9158"
"78.6000","1.3062","4.9258"
"78.8000","1.3097","4.9391"
"79.0000","1.3129","4.9486"
"79.2000","1.3162","4.9595"
"79.4000","1.3198","4.9715"
"79.6000","1.3228","4.9807"
"79.8000","1.3264","4.9942"
"80.0000","1.3294","5.0012"
"80.2000","1.3327","5.0124"
"80.4000","1.3366","5.0268"
"80.6000","1.3393","5.0336"
"80.8000","1.3432","5.0473"
"81.0000","1.3460","5.0520"
"81.2000","1.3495","5.0643"
"81.4000","1.3534","5.0786"
"81.6000","1.3560","5.0850"
"81.8000","1.3600","5.1007"
"82.0000","1.3627","5.1081"
"82.2000","1.3661","5.1201"
"82.4000","1.3699","5.1333"
"82.6000","1.3726","5.1398"
"82.8000","1.3767","5.1559"
"83.0000","1.3794","5.1627"
"83.2000","1.3828","5.1755"
"83.4000","1.3866","5.1901"
"83.6000","1.3892","5.1970"
"83.8000","1.3932","5.2120"
"84.0000","1.3962","5.2208"
"84.2000","1.3996","5.2337"
"84.4000","1.4031","5.2465"
"84.6000","1.4060","5.2549"
"84.8000","1.4099","5.2710"
"85.0000","1.4129","5.2801"
"85.2000","1.4162","5.2907"
"85.4000","1.4197","5.3041"
"85.6000","1.4227","5.3130"
"85.8000","1.4263","5.3274"
"86.0000","1.4296","5.3378"
"86.2000","1.4328","5.3495"
"86.4000","1.4363","5.3604"
"86.6000","1.4396","5.3720"
"86.8000","1.4429","5.3843"
"87.0000","1.4463","5.3962"
"87.2000","1.4496","5.4069"
"87.4000","1.4529","5.4190"
"87.6000","1.4565","5.4323"
"87.8000","1.4595","5.4410"
"88.0000","1.4631","5.4541"
"88.2000","1.4661","5.4642"
"88.4000","1.4695","5.4759"
"88.6000","1.4733","5.4905"
"88.8000","1.4761","5.4979"
"89.0000","1.4798","5.5132"
"89.2000","1.4827","5.5211"
"89.4000","1.4861","5.5324"
"89.6000","1.4900","5.5473"
"89.8000","1.4926","5.5536"
"90.0000","1.4966","5.5693"
"90.2000","1.4994","5.5764"
"90.4000","1.5028","5.5902"
"90.6000","1.5066","5.6035"
"90.8000","1.5092","5.6102"
"91.0000","1.5133","5.6273"
"91.2000","1.5161","5.6339"
"91.4000","1.5194","5.6454"
"91.6000","1.5233","5.6608"
"91.8000","1.5259","5.6676"
"92.0000","1.5299","5.6825"
"92.2000","1.5328","5.6901"
"92.4000","1.5361","5.7009"
"92.6000","1.5398","5.7148"
"92.8000","1.5426","5.7228"
"93.0000","1.5466","5.7382"
"93.2000","1.5495","5.7463"
"93.4000","1.5529","5.7582"
"93.6000","1.5564","5.7697"
"93.8000","1.5593","5.7774"
"94.0000","1.5631","5.7930"
"94.2000","1.5663","5.8026"
"94.4000","1.5695","5.8133"
"94.6000","1.5730","5.8249"
"94.8000","1.5761","5.8341"
"95.0000","1.5797","5.8464"
"95.2000","1.5830","5.8571"
"95.4000","1.5862","5.8683"
"95.6000","1.5896","5.8790"
"95.8000","1.5929","5.8895"
"96.0000","1.5963","5.9018"
"96.2000","1.5996","5.9127"
"96.4000","1.6029","5.9227"
"96.6000","1.6062","5.9333"
"96.8000","1.6098","5.9460"
"97.0000","1.6128","5.9548"
"97.2000","1.6163","5.9666"
"97.4000","1.6194","5.9754"
"97.6000","1.6228","5.9879"
"97.8000","1.6267","6.0017"
"98.0000","1.6293","6.0080"
"98.2000","1.6332","6.0215"
"98.4000","1.6361","6.0299"
"98.6000","1.6394","6.0404"
"98.8000","1.6434","6.0561"
"99.0000","1.6460","6.0612"
"99.2000","1.6498","6.0762"
"99.4000","1.6527","6.0831"
"99.6000","1.6561","6.0947"
"99.8000","1.6602","6.1108"
"100.0000","1.6625","6.1140"
"100.2000","1.6666","6.1297"
"100.4000","1.6694","6.1364"
"100.6000","1.6727","6.1484"
"100.8000","1.6767","6.1628"
"101.0000","1.6792","6.1674"
"101.2000","1.6832","6.1825"
"101.4000","1.6861","6.1907"
"101.6000","1.6894","6.2019"
"101.8000","1.6932","6.2156"
"102.0000","1.6960","6.2222"
"102.2000","1.6998","6.2370"
"102.4000","1.7030","6.2455"
"102.6000","1.7062","6.2543"
"102.8000","1.7097","6.2677"
"103.0000","1.7127","6.2758"
"103.2000","1.7164","6.2899"
"103.4000","1.7197","6.2992"
"103.6000","1.7228","6.3092"
"103.8000","1.7263","6.3200"
"104.0000","1.7295","6.3296"
"104.2000","1.7330","6.3417"
"104.4000","1.7363","6.3520"
"104.6000","1.7396","6.3618"
"104.8000","1.7430","6.3732"
"105.0000","1.7465","6.3845"
"105.2000","1.7495","6.3935"
"105.4000","1.7531","6.4052"
"105.6000","1.7561","6.4132"
"105.8000","1.7595","6.4247"
"106.0000","1.7634","6.4389"
"106.2000","1.7660","6.4446"
"106.4000","1.7696","6.4570"
"106.6000","1.7728","6.4671"
"106.8000","1.7761","6.4778"
"107.0000","1.7801","6.4920"
"107.2000","1.7826","6.4963"
"107.4000","1.7864","6.5104"
"107.6000","1.7895","6.5182"
"107.8000","1.7927","6.5287"
"108.0000","1.7969","6.5448"
"108.2000","1.7992","6.5494"
"108.4000","1.8031","6.5631"
"108.6000","1.8062","6.5708"
"108.8000","1.8094","6.5818"
"109.0000","1.8134","6.5968"
"109.2000","1.8159","6.6010"
"109.4000","1.8198","6.6159"
"109.6000","1.8229","6.6254"
"109.8000","1.8260","6.6350"
"110.0000","1.8300","6.6485"
"110.2000","1.8326","6.6537"
"110.4000","1.8366","6.6691"
"110.6000","1.8396","6.6774"
"110.8000","1.8428","6.6870"
"111.0000","1.8465","6.6993"
"111.2000","1.8493","6.7065"
"111.4000","1.8532","6.7211"
"111.6000","1.8563","6.7296"
"111.8000","1.8595","6.7380"
"112.0000","1.8630","6.7514"
"112.2000","1.8662","6.7602"
"112.4000","1.8697","6.7723"
"112.6000","1.8730","6.7819"
"112.8000","1.8762","6.7914"
"113.0000","1.8796","6.8014"
"113.2000","1.8831","6.8121"
"113.4000","1.8862","6.8222"
"113.6000","1.8897","6.8331"
"113.8000","1.8929","6.8422"
"114.0000","1.8962","6.8534"
"114.2000","1.8999","6.8655"
"114.4000","1.9028","6.8737"
"114.6000","1.9062","6.8840"
"114.8000","1.9096","6.8941"
"115.0000","1.9128","6.9035"
"115.2000","1.9167","6.9179"
"115.4000","1.9193","6.9224"
"115.6000","1.9230","6.9354"
"115.8000","1.9263","6.9451"
"116.0000","1.9294","6.9551"
"116.2000","1.9335","6.9703"
"116.4000","1.9359","6.9737"
"116.6000","1.9397","6.9877"
"116.8000","1.9429","6.9964"
"117.0000","1.9460","7.0046"
"117.2000","1.9502","7.0206"
"117.4000","1.9525","7.0242"
"117.6000","1.9564","7.0397"
"117.8000","1.9597","7.0480"
"118.0000","1.9626","7.0552"
"118.2000","1.9666","7.0702"
"118.4000","1.9693","7.0758"
"118.6000","1.9732","7.0896"
"118.8000","1.9763","7.0982"
"119.0000","1.9793","7.1068"
"119.2000","1.9833","7.1211"
"119.4000","1.9860","7.1272"
"119.6000","1.9898","7.1398"
"119.8000","1.9929","7.1485"
"120.0000","1.9960","7.1575"
"120.2000","1.9998","7.1710"
"120.4000","2.0028","7.1787"
"120.6000","2.0064","7.1903"
"120.8000","2.0096","7.1995"
"121.0000","2.0128","7.2085"
"121.2000","2.0163","7.2190"
"121.4000","2.0196","7.2304"
"121.6000","2.0229","7.2397"
"121.8000","2.0262","7.2492"
"122.0000","2.0296","7.2596"
"122.2000","2.0330","7.2706"
"122.4000","2.0365","7.2812"
"122.6000","2.0394","7.2879"
"122.8000","2.0430","7.2989"
"123.0000","2.0463","7.3102"
"123.2000","2.0495","7.3189"
"123.4000","2.0532","7.3313"
"123.6000","2.0560","7.3372"
"123.8000","2.0595","7.3482"
"124.0000","2.0630","7.3588"
"124.2000","2.0660","7.3670"
"124.4000","2.0702","7.3813"
"124.6000","2.0726","7.3851"
"124.8000","2.0763","7.3978"
"125.0000","2.0797","7.4082"
"125.2000","2.0827","7.4158"
"125.4000","2.0868","7.4309"
"125.6000","2.0892","7.4350"
"125.8000","2.0930","7.4480"
"126.0000","2.0963","7.4564"
"126.2000","2.0993","7.4635"
"126.4000","2.1034","7.4783"
"126.6000","2.1059","7.4825"
"126.8000","2.1096","7.4954"
"127.0000","2.1130","7.5048"
"127.2000","2.1160","7.5131"
"127.4000","2.1199","7.5263"
"127.6000","2.1227","7.5314"
"127.8000","2.1265","7.5429"
"128.0000","2.1297","7.5513"
"128.2000","2.1327","7.5574"
"128.4000","2.1365","7.5699"
"128.6000","2.1394","7.5766"
"128.8000","2.1431","7.5884"
"129.0000","2.1463","7.5969"
"129.2000","2.1494","7.6040"
"129.4000","2.1530","7.6148"
"129.6000","2.1562","7.6227"
"129.8000","2.1597","7.6341"
"130.0000","2.1629","7.6427"
"130.2000","2.1661","7.6521"
"130.4000","2.1696","7.6609"
"130.6000","2.1731","7.6721"
"130.8000","2.1761","7.6799"
"131.0000","2.1797","7.6904"
"131.2000","2.1829","7.6976"
"131.4000","2.1862","7.7076"
"131.6000","2.1898","7.7190"
"131.8000","2.1928","7.7253"
"132.0000","2.1962","7.7358"
"132.2000","2.1996","7.7451"
"132.4000","2.2028","7.7541"
"132.6000","2.2067","7.7659"
"132.8000","2.2093","7.7703"
"133.0000","2.2128","7.7812"
"133.2000","2.2164","7.7924"
"133.4000","2.2195","7.7995"
"133.6000","2.2234","7.8139"
"133.8000","2.2259","7.8177"
"134.0000","2.2296","7.8291"
"134.2000","2.2332","7.8410"
"134.4000","2.2360","7.8470"
"134.6000","2.2401","7.8606"
"134.8000","2.2426","7.8643"
"135.0000","2.2463","7.8770"
"135.2000","2.2498","7.8875"
"135.4000","2.2526","7.8937"
"135.6000","2.2567","7.9075"
"135.8000","2.2592","7.9127"
"136.0000","2.2629","7.9250"
"136.2000","2.2664","7.9346"
"136.4000","2.2693","7.9411"
"136.6000","2.2733","7.9552"
"136.8000","2.2761","7.9614"
"137.0000","2.2798","7.9742"
"137.2000","2.2830","7.9827"
"137.4000","2.2859","7.9908"
"137.6000","2.2898","8.0043"
"137.8000","2.2929","8.0112"
"138.0000","2.2963","8.0214"
"138.2000","2.2995","8.0307"
"138.4000","2.3027","8.0392"
"138.6000","2.3063","8.0511"
"138.8000","2.3096","8.0605"
"139.0000","2.3130","8.0706"
"139.2000","2.3163","8.0802"
"139.4000","2.3196","8.0889"
"139.6000","2.3230","8.0985"
"139.8000","2.3265","8.1097"
"140.0000","2.3295","8.1179"
"140.2000","2.3329","8.1276"
"140.4000","2.3364","8.1382"
"140.6000","2.3395","8.1466"
"140.8000","2.3433","8.1591"
"141.0000","2.3460","8.1648"
"141.2000","2.3496","8.1750"
"141.4000","2.3531","8.1864"
"141.6000","2.3560","8.1943"
"141.8000","2.3600","8.2077"
"142.0000","2.3626","8.2127"
"142.2000","2.3663","8.2248"
"142.4000","2.3699","8.2366"
"142.6000","2.3727","8.2423"
"142.8000","2.3768","8.2553"
"143.0000","2.3792","8.2586"
"143.2000","2.3828","8.2717"
"143.4000","2.3866","8.2828"
"143.6000","2.3893","8.2882"
"143.8000","2.3934","8.3027"
"144.0000","2.3959","8.3073"
"144.2000","2.3995","8.3196"
"144.4000","2.4031","8.3309"
"144.6000","2.4059","8.3364"
"144.8000","2.4100","8.3509"
"145.0000","2.4128","8.3571"
"145.2000","2.4163","8.3681"
"145.4000","2.4198","8.3784"
"145.6000","2.4226","8.3837"
"145.8000","2.4266","8.3983"
"146.0000","2.4295","8.4044"
"146.2000","2.4330","8.4146"
"146.4000","2.4364","8.4233"
"146.6000","2.4394","8.4306"
"146.8000","2.4431","8.4416"
"147.0000","2.4463","8.4504"
"147.2000","2.4496","8.4603"
"147.4000","2.4529","8.4684"
"147.6000","2.4561","8.4770"
"147.8000","2.4596","8.4865"
"148.0000","2.4631","8.4968"
"148.2000","2.4662","8.5033"
"148.4000","2.4696","8.5132"
"148.6000","2.4730","8.5221"
"148.8000","2.4762","8.5298"
"149.0000","2.4798","8.5407"
"149.2000","2.4828","8.5462"
"149.4000","2.4862","8.5564"
"149.6000","2.4898","8.5656"
"149.8000","2.4927","8.5714"
"150.0000","2.4966","8.5830"
"150.2000","2.4993","8.5877"
"150.4000","2.5028","8.5996"
"150.6000","2.5066","8.6110"
"150.8000","2.5094","8.6163"
"151.0000","2.5132","8.6284"
"151.2000","2.5160","8.6334"
"151.4000","2.5195","8.6434"
"151.6000","2.5234","8.6550"
"151.8000","2.5259","8.6592"
"152.0000","2.5301","8.6742"
"152.2000","2.5327","8.6785"
"152.4000","2.5362","8.6881"
"152.6000","2.5399","8.6993"
"152.8000","2.5425","8.7039"
"153.0000","2.5467","8.7187"
"153.2000","2.5494","8.7233"
"153.4000","2.5528","8.7332"
"153.6000","2.5565","8.7435"
"153.8000","2.5593","8.7500"
"154.0000","2.5632","8.7628"
"154.2000","2.5662","8.7698"
"154.4000","2.5696","8.7793"
"154.6000","2.5730","8.7886"
"154.8000","2.5759","8.7959"
"155.0000","2.5799","8.8094"
"155.2000","2.5829","8.8168"
"155.4000","2.5862","8.8257"
"155.6000","2.5896","8.8360"
"155.8000","2.5928","8.8441"
"156.0000","2.5964","8.8555"
"156.2000","2.5996","8.8634"
"156.4000","2.6029","8.8734"
"156.6000","2.6063","8.8835"
"156.8000","2.6097","8.8928"
"157.0000","2.6129","8.9009"
"157.2000","2.6164","8.9121"
"157.4000","2.6195","8.9198"
"157.6000","2.6229","8.9291"
"157.8000","2.6266","8.9412"
"158.0000","2.6294","8.9480"
"158.2000","2.6330","8.9604"
"158.4000","2.6361","8.9678"
"158.6000","2.6394","8.9761"
"158.8000","2.6434","8.9897"
"159.0000","2.6460","8.9947"
"159.2000","2.6498","9.0074"
"159.4000","2.6528","9.0152"
"159.6000","2.6560","9.0238"
"159.8000","2.6600","9.0377"
"160.0000","2.6626","9.0432"
"160.2000","2.6666","9.0560"
"160.4000","2.6694","9.0621"
"160.6000","2.6728","9.0732"
"160.8000","2.6766","9.0859"
"161.0000","2.6792","9.0913"
"161.2000","2.6832","9.1051"
"161.4000","2.6861","9.1117"
"161.6000","2.6895","9.1219"
"161.8000","2.6932","9.1334"
"162.0000","2.6959","9.1387"
"162.2000","2.6999","9.1540"
"162.4000","2.7028","9.1607"
"162.6000","2.7062","9.1701"
"162.8000","2.7098","9.1819"
"163.0000","2.7126","9.1882"
"163.2000","2.7164","9.2008"
"163.4000","2.7196","9.2093"
"163.6000","2.7229","9.2186"
"163.8000","2.7264","9.2300"
"164.0000","2.7294","9.2376"
"164.2000","2.7331","9.2494"
"164.4000","2.7363","9.2583"
"164.6000","2.7395","9.2670"
"164.8000","2.7430","9.2784"
"165.0000","2.7463","9.2879"
"165.2000","2.7496","9.2976"
"165.4000","2.7530","9.3079"
"165.6000","2.7561","9.3168"
"165.8000","2.7596","9.3270"
"166.0000","2.7630","9.3379"
"166.2000","2.7662","9.3462"
"166.4000","2.7697","9.3582"
"166.6000","2.7728","9.3662"
"166.8000","2.7761","9.3759"
"167.0000","2.7800","9.3878"
"167.2000","2.7827","9.3948"
"167.4000","2.7863","9.4056"
"167.6000","2.7894","9.4144"
"167.8000","2.7928","9.4245"
"168.0000","2.7967","9.4384"
"168.2000","2.7993","9.4431"
"168.4000","2.8032","9.4570"
"168.6000","2.8060","9.4632"
"168.8000","2.8094","9.4736"
"169.0000","2.8134","9.4870"
"169.2000","2.8159","9.4921"
"169.4000","2.8199","9.5054"
"169.6000","2.8227","9.5125"
"169.8000","2.8261","9.5235"
"170.0000","2.8301","9.5364"
"170.2000","2.8325","9.5398"
"170.4000","2.8365","9.5541"
"170.6000","2.8396","9.5625"
"170.8000","2.8427","9.5714"
"171.0000","2.8466","9.5840"
"171.2000","2.8492","9.5896"
"171.4000","2.8533","9.6049"
"171.6000","2.8562","9.6118"
"171.8000","2.8594","9.6197"
"172.0000","2.8632","9.6331"
"172.2000","2.8660","9.6401"
"172.4000","2.8698","9.6527"
"172.6000","2.8730","9.6619"
"172.8000","2.8761","9.6702"
"173.0000","2.8797","9.6818"
"173.2000","2.8827","9.6890"
"173.4000","2.8864","9.7007"
"173.6000","2.8897","9.7106"
"173.8000","2.8928","9.7196"
"174.0000","2.8963","9.7297"
"174.2000","2.8997","9.7410"
"174.4000","2.9029","9.7495"
"174.6000","2.9063","9.7605"
"174.8000","2.9095","9.7690"
"175.0000","2.9129","9.7791"
"175.2000","2.9165","9.7909"
"175.4000","2.9195","9.7985"
"175.6000","2.9231","9.8092"
"175.8000","2.9261","9.8171"
"176.0000","2.9294","9.8266"
"176.2000","2.9333","9.8408"
"176.4000","2.9360","9.8463"
"176.6000","2.9397","9.8576"
"176.8000","2.9428","9.8652"
"177.0000","2.9461","9.8763"
"177.2000","2.9501","9.8894"
"177.4000","2.9526","9.8935"
"177.6000","2.9563","9.9063"
"177.8000","2.9595","9.9154"
"178.0000","2.9628","9.9243"
"178.2000","2.9669","9.9385"
"178.4000","2.9692","9.9419"
"178.6000","2.9732","9.9567"
"178.8000","2.9761","9.9639"
"179.0000","2.9793","9.9729"
"179.2000","2.9834","9.9866"
"179.4000","2.9859","9.9909"
"179.6000","2.9899","10.0060"
"179.8000","2.9929","10.0125"
"180.0000","2.9961","10.0212"
"180.2000","2.9999","10.0344"
"180.4000","3.0026","10.0403"
"180.6000","3.0066","10.0546"
"180.8000","3.0096","10.0614"
"181.0000","3.0128","10.0705"
"181.2000","3.0164","10.0816"
"181.4000","3.0194","10.0893"
"181.6000","3.0231","10.1007"
"181.8000","3.0262","10.1096"
"182.0000","3.0294","10.1188"
"182.2000","3.0330","10.1293"
"182.4000","3.0362","10.1391"
"182.6000","3.0396","10.1487"
"182.8000","3.0430","10.1597"
"183.0000","3.0461","10.1673"
"183.2000","3.0495","10.1769"
"183.4000","3.0531","10.1878"
"183.6000","3.0562","10.1970"
"183.8000","3.0596","10.2066"
"184.0000","3.0628","10.2163"
"184.2000","3.0662","10.2253"
"184.4000","3.0700","10.2390"
"184.6000","3.0727","10.2446"
"184.8000","3.0762","10.2552"
"185.0000","3.0795","10.2639"
"185.2000","3.0828","10.2730"
"185.4000","3.0868","10.2871"
"185.6000","3.0893","10.2918"
"185.8000","3.0929","10.3033"
"186.0000","3.0963","10.3131"
"186.2000","3.0994","10.3217"
"186.4000","3.1035","10.3355"
"186.6000","3.1059","10.3390"
"186.8000","3.1098","10.3523"
"187.0000","3.1130","10.3613"
"187.2000","3.1160","10.3684"
"187.4000","3.1201","10.3832"
"187.6000","3.1225","10.3869"
"187.8000","3.1265","10.4015"
"188.0000","3.1296","10.4093"
"188.2000","3.1327","10.4169"
"188.4000","3.1366","10.4305"
"188.6000","3.1393","10.4368"
"188.8000","3.1432","10.4491"
"189.0000","3.1462","10.4570"
"189.2000","3.1494","10.4659"
"189.4000","3.1532","10.4787"
"189.6000","3.1561","10.4856"
"189.8000","3.1597","10.4963"
"190.0000","3.1630","10.5054"
"190.2000","3.1661","10.5136"
"190.4000","3.1697","10.5250"
"190.6000","3.1728","10.5339"
"190.8000","3.1764","10.5451"
"191.0000","3.1796","10.5537"
"191.2000","3.1828","10.5633"
"191.4000","3.1863","10.5729"
"191.6000","3.1897","10.5825"
"191.8000","3.1929","10.5912"
"192.0000","3.1963","10.6020"
"192.2000","3.1996","10.6106"
"192.4000","3.2029","10.6204"
"192.6000","3.2066","10.6317"
"192.8000","3.2094","10.6384"
"193.0000","3.2129","10.6490"
"193.2000","3.2163","10.6586"
"193.4000","3.2194","10.6667"
"193.6000","3.2234","10.6809"
"193.8000","3.2260","10.6850"
"194.0000","3.2296","10.6973"
"194.2000","3.2330","10.7065"
"194.4000","3.2361","10.7147"
"194.6000","3.2402","10.7292"
"194.8000","3.2426","10.7327"
"195.0000","3.2464","10.7452"
"195.2000","3.2496","10.7535"
"195.4000","3.2526","10.7614"
"195.6000","3.2567","10.7755"
"195.8000","3.2592","10.7802"
"196.0000","3.2630","10.7921"
"196.2000","3.2662","10.8019"
"196.4000","3.2693","10.8094"
"196.6000","3.2733","10.8225"
"196.8000","3.2760","10.8275"
"197.0000","3.2798","10.8406"
"197.2000","3.2830","10.8493"
"197.4000","3.2860","10.8568"
"197.6000","3.2899","10.8695"
"197.8000","3.2928","10.8766"
"198.0000","3.2965","10.8881"
"198.2000","3.2996","10.8955"
"198.4000","3.3027","10.9038"
"198.6000","3.3065","10.9162"
"198.8000","3.3095","10.9237"
"199.0000","3.3130","10.9343"
"199.2000","3.3162","10.9431"
"199.4000","3.3195","10.9513"
"199.6000","3.3229","10.9624"
"199.8000","3.3263","10.9715"
"200.0000","3.3296","10.9798"
"200.2000","3.3329","10.9888"
"200.4000","3.3362","10.9994"
"200.6000","3.3395","11.0081"
"200.8000","3.3432","11.0200"
"201.0000","3.3461","11.0263"
"201.2000","3.3496","11.0364"
"201.4000","3.3529","11.0453"
"201.6000","3.3562","11.0547"
"201.8000","3.3599","11.0665"
"202.0000","3.3627","11.0729"
"202.2000","3.3663","11.0845"
"202.4000","3.3696","11.0932"
"202.6000","3.3728","11.1018"
"202.8000","3.3766","11.1140"
"203.0000","3.3793","11.1169"
"203.2000","3.3829","11.1270"
"203.4000","3.3863","11.1363"
"203.6000","3.3894","11.1432"
"203.8000","3.3934","11.1564"
"204.0000","3.3959","11.1605"
"204.2000","3.3997","11.1715"
"204.4000","3.4031","11.1814"
"204.6000","3.4060","11.1876"
"204.8000","3.4100","11.2010"
"205.0000","3.4126","11.2056"
"205.2000","3.4163","11.2175"
"205.4000","3.4198","11.2260"
"205.6000","3.4226","11.2325"
"205.8000","3.4267","11.2463"
"206.0000","3.4293","11.2509"
"206.2000","3.4330","11.2627"
"206.4000","3.4364","11.2715"
"206.6000","3.4394","11.2802"
"206.8000","3.4433","11.2919"
"207.0000","3.4461","11.2975"
"207.2000","3.4498","11.3082"
"207.4000","3.4530","11.3165"
"207.6000","3.4559","11.3234"
"207.8000","3.4597","11.3351"
"208.0000","3.4629","11.3439"
"208.2000","3.4663","11.3532"
"208.4000","3.4696","11.3620"
"208.6000","3.4728","11.3696"
"208.8000","3.4763","11.3795"
"209.0000","3.4796","11.3884"
"209.2000","3.4829","11.3970"
"209.4000","3.4864","11.4073"
"209.6000","3.4896","11.4149"
"209.8000","3.4929","11.4240"
"210.0000","3.4965","11.4340"
"210.2000","3.4995","11.4407"
"210.4000","3.5029","11.4499"
"210.6000","3.5064","11.4583"
"210.8000","3.5095","11.4659"
"211.0000","3.5132","11.4787"
"211.2000","3.5160","11.4834"
"211.4000","3.5195","11.4935"
"211.6000","3.5232","11.5043"
"211.8000","3.5261","11.5102"
"212.0000","3.5299","11.5231"
"212.2000","3.5327","11.5281"
"212.4000","3.5363","11.5377"
"212.6000","3.5398","11.5480"
"212.8000","3.5426","11.5543"
"213.0000","3.5468","11.5680"
"213.2000","3.5493","11.5714"
"213.4000","3.5528","11.5819"
"213.6000","3.5565","11.5926"
"213.8000","3.5592","11.5982"
"214.0000","3.5633","11.6114"
"214.2000","3.5660","11.6166"
"214.4000","3.5696","11.6267"
"214.6000","3.5731","11.6364"
"214.8000","3.5759","11.6425"
"215.0000","3.5800","11.6554"
"215.2000","3.5828","11.6616"
"215.4000","3.5864","11.6718"
"215.6000","3.5897","11.6814"
"215.8000","3.5927","11.6883"
"216.0000","3.5964","11.6992"
"216.2000","3.5995","11.7065"
"216.4000","3.6030","11.7168"
"216.6000","3.6063","11.7253"
"216.8000","3.6094","11.7325"
"217.0000","3.6130","11.7439"
"217.2000","3.6163","11.7525"
"217.4000","3.6196","11.7626"
"217.6000","3.6229","11.7703"
"217.8000","3.6262","11.7792"
"218.0000","3.6296","11.7883"
"218.2000","3.6332","11.7995"
"218.4000","3.6362","11.8066"
"218.6000","3.6395","11.8154"
"218.8000","3.6431","11.8265"
"219.0000","3.6462","11.8346"
"219.2000","3.6498","11.8453"
"219.4000","3.6527","11.8514"
"219.6000","3.6562","11.8618"
"219.8000","3.6599","11.8726"
"220.0000","3.6627","11.8796"
"220.2000","3.6665","11.8915"
"220.4000","3.6693","11.8974"
"220.6000","3.6728","11.9073"
"220.8000","3.6766","11.9192"
"221.0000","3.6794","11.9252"
"221.2000","3.6834","11.9381"
"221.4000","3.6860","11.9427"
"221.6000","3.6896","11.9528"
"221.8000","3.6932","11.9646"
"222.0000","3.6960","11.9695"
"222.2000","3.7000","11.9834"
"222.4000","3.7027","11.9875"
"222.6000","3.7062","11.9982"
"222.8000","3.7099","12.0093"
"223.0000","3.7125","12.0143"
"223.2000","3.7166","12.0274"
"223.4000","3.7195","12.0336"
"223.6000","3.7228","12.0427"
"223.8000","3.7265","12.0528"
"224.0000","3.7293","12.0595"
"224.2000","3.7333","12.0720"
"224.4000","3.7362","12.0788"
"224.6000","3.7396","12.0875"
"224.8000","3.7430","12.0964"
"225.0000","3.7460","12.1037"
"225.2000","3.7497","12.1147"
"225.4000","3.7529","12.1228"
"225.6000","3.7562","12.1308"
"225.8000","3.7596","12.1408"
"226.0000","3.7629","12.1491"
"226.2000","3.7662","12.1586"
"226.4000","3.7696","12.1681"
"226.6000","3.7729","12.1766"
"226.8000","3.7762","12.1847"
"227.0000","3.7797","12.1950"
"227.2000","3.7829","12.2037"
"227.4000","3.7864","12.2127"
"227.6000","3.7894","12.2204"
"227.8000","3.7928","12.2295"
"228.0000","3.7966","12.2424"
"228.2000","3.7994","12.2479"
"228.4000","3.8031","12.2579"
"228.6000","3.8061","12.2644"
"228.8000","3.8095","12.2738"
"229.0000","3.8133","12.2851"
"229.2000","3.8160","12.2899"
"229.4000","3.8199","12.3033"
"229.6000","3.8227","12.3089"
"229.8000","3.8261","12.3184"
"230.0000","3.8300","12.3301"
"230.2000","3.8326","12.3351"
"230.4000","3.8367","12.3482"
"230.6000","3.8394","12.3529"
"230.8000","3.8427","12.3626"
"231.0000","3.8466","12.3747"
"231.2000","3.8492","12.3795"
"231.4000","3.8533","12.3929"
"231.6000","3.8561","12.3992"
"231.8000","3.8594","12.4083"
"232.0000","3.8632","12.4188"
"232.2000","3.8659","12.4237"
"232.4000","3.8699","12.4383"
"232.6000","3.8728","12.4445"
"232.8000","3.8762","12.4531"
"233.0000","3.8797","12.4640"
"233.2000","3.8827","12.4695"
"233.4000","3.8865","12.4821"
"233.6000","3.8896","12.4893"
"233.8000","3.8929","12.4977"
"234.0000","3.8964","12.5078"
"234.2000","3.8994","12.5155"
"234.4000","3.9030","12.5258"
"234.6000","3.9063","12.5343"
"234.8000","3.9095","12.5424"
"235.0000","3.9129","12.5510"
"235.2000","3.9163","12.5613"
"235.4000","3.9196","12.5697"
"235.6000","3.9230","12.5789"
"235.8000","3.9262","12.5864"
"236.0000","3.9295","12.5954"
"236.2000","3.9332","12.6070"
"236.4000","3.9360","12.6129"
"236.6000","3.9398","12.6244"
"236.8000","3.9428","12.6304"
"237.0000","3.9462","12.6406"
"237.2000","3.9500","12.6527"
"237.4000","3.9526","12.6574"
"237.6000","3.9565","12.6684"
"237.8000","3.9594","12.6747"
"238.0000","3.9628","12.6848"
"238.2000","3.9668","12.6972"
"238.4000","3.9692","12.7014"
"238.6000","3.9732","12.7137"
"238.8000","3.9761","12.7202"
"239.0000","3.9794","12.7291"
"239.2000","3.9834","12.7412"
"239.4000","3.9859","12.7451"
"239.6000","3.9900","12.7597"
"239.8000","3.9927","12.7646"
"240.0000","3.9961","12.7737"
"240.2000","4.0000","12.7857"
"240.4000","4.0026","12.7903"
"240.6000","4.0064","12.8036"
"240.8000","4.0096","12.8108"
"241.0000","4.0128","12.8190"
"241.2000","4.0165","12.8294"
"241.4000","4.0193","12.8350"
"241.6000","4.0233","12.8487"
"241.8000","4.0263","12.8559"
"242.0000","4.0294","12.8636"
"242.2000","4.0331","12.8732"
"242.4000","4.0361","12.8814"
"242.6000","4.0398","12.8932"
"242.8000","4.0429","12.8998"
"243.0000","4.0462","12.9083"
"243.2000","4.0496","12.9184"
"243.4000","4.0529","12.9272"
"243.6000","4.0563","12.9361"
"243.8000","4.0597","12.9461"
"244.0000","4.0629","12.9535"
"244.2000","4.0662","12.9632"
"244.4000","4.0698","12.9734"
"244.6000","4.0729","12.9800"
"244.8000","4.0763","12.9898"
"245.0000","4.0794","12.9976"
"245.2000","4.0829","13.0074"
"245.4000","4.0868","13.0199"
"245.6000","4.0893","13.0247"
"245.8000","4.0931","13.0350"
"246.0000","4.0961","13.0435"
"246.2000","4.0994","13.0519"
"246.4000","4.1032","13.0631"
"246.6000","4.1060","13.0690"
"246.8000","4.1098","13.0814"
"247.0000","4.1128","13.0880"
"247.2000","4.1161","13.0966"
"247.4000","4.1202","13.1098"
"247.6000","4.1225","13.1130"
"247.8000","4.1264","13.1260"
"248.0000","4.1295","13.1334"
"248.2000","4.1327","13.1417"
"248.4000","4.1367","13.1539"
"248.6000","4.1392","13.1582"
"248.8000","4.1432","13.1712"
"249.0000","4.1462","13.1780"
"249.2000","4.1493","13.1867"
"249.4000","4.1533","13.1988"
"249.6000","4.1559","13.2044"
"249.8000","4.1598","13.2163"
"250.0000","4.1631","13.2239"
"250.2000","4.1662","13.2313"
"250.4000","4.1698","13.2432"
"250.6000","4.1726","13.2481"
"250.8000","4.1765","13.2606"
"251.0000","4.1797","13.2687"
"251.2000","4.1828","13.2761"
"251.4000","4.1863","13.2867"
"251.6000","4.1895","13.2945"
"251.8000","4.1930","13.3044"
"252.0000","4.1963","13.3130"
"252.2000","4.1995","13.3207"
"252.4000","4.2029","13.3306"
"252.6000","4.2064","13.3405"
"252.8000","4.2095","13.3482"
"253.0000","4.2131","13.3585"
"253.2000","4.2162","13.3663"
"253.4000","4.2196","13.3751"
"253.6000","4.2232","13.3850"
"253.8000","4.2261","13.3907"
"254.0000","4.2297","13.4025"
"254.2000","4.2328","13.4100"
"254.4000","4.2360","13.4174"
"254.6000","4.2400","13.4306"
"254.8000","4.2426","13.4344"
"255.0000","4.2464","13.4467"
"255.2000","4.2495","13.4535"
"255.4000","4.2528","13.4618"
"255.6000","4.2568","13.4754"
"255.8000","4.2592","13.4788"
"256.0000","4.2631","13.4899"
"256.2000","4.2662","13.4976"
"256.4000","4.2694","13.5059"
"256.6000","4.2735","13.5180"
"256.8000","4.2759","13.5222"
"257.0000","4.2798","13.5344"
"257.2000","4.2829","13.5415"
"257.4000","4.2860","13.5486"
"257.6000","4.2900","13.5613"
"257.8000","4.2926","13.5653"
"258.0000","4.2964","13.5774"
"258.2000","4.2996","13.5856"
"258.4000","4.3027","13.5924"
"258.6000","4.3066","13.6057"
"258.8000","4.3093","13.6108"
"259.0000","4.3132","13.6228"
"259.2000","4.3163","13.6298"
"259.4000","4.3194","13.6363"
"259.6000","4.3231","13.6478"
"259.8000","4.3261","13.6547"
"260.0000","4.3298","13.6656"
"260.2000","4.3329","13.6734"
"260.4000","4.3361","13.6810"
"260.6000","4.3397","13.6912"
"260.8000","4.3430","13.6994"
"261.0000","4.3463","13.7076"
"261.2000","4.3496","13.7166"
"261.4000","4.3529","13.7255"
"261.6000","4.3562","13.7335"
"261.8000","4.3598","13.7446"
"262.0000","4.3628","13.7512"
"262.2000","4.3664","13.7613"
"262.4000","4.3697","13.7698"
"262.6000","4.3728","13.7769"
"262.8000","4.3767","13.7890"
"263.0000","4.3793","13.7935"
"263.2000","4.3829","13.8050"
"263.4000","4.3863","13.8144"
"263.6000","4.3894","13.8218"
"263.8000","4.3933","13.8338"
"264.0000","4.3959","13.8381"
"264.2000","4.3997","13.8502"
"264.4000","4.4030","13.8586"
"264.6000","4.4060","13.8653"
"264.8000","4.4101","13.8784"
"265.0000","4.4126","13.8827"
"265.2000","4.4163","13.8941"
"265.4000","4.4196","13.9030"
"265.6000","4.4227","13.9100"
"265.8000","4.4267","13.9231"
"266.0000","4.4292","13.9271"
"266.2000","4.4330","13.9388"
"266.4000","4.4363","13.9463"
"266.6000","4.4393","13.9531"
"266.8000","4.4433","13.9671"
"267.0000","4.4460","13.9708"
"267.2000","4.4497","13.9837"
"267.4000","4.4530","13.9909"
"267.6000","4.4561","13.9977"
"267.8000","4.4598","14.0102"
"268.0000","4.4628","14.0162"
"268.2000","4.4664","14.0268"
"268.4000","4.4696","14.0344"
"268.6000","4.4727","14.0424"
"268.8000","4.4763","14.0528"
"269.0000","4.4796","14.0615"
"269.2000","4.4829","14.0694"
"269.4000","4.4863","14.0788"
"269.6000","4.4895","14.0871"
"269.8000","4.4929","14.0958"
"270.0000","4.4964","14.1056"
"270.2000","4.4996","14.1134"
"270.4000","4.5029","14.1227"
"270.6000","4.5063","14.1313"
"270.8000","4.5096","14.1393"
"271.0000","4.5132","14.1508"
"271.2000","4.5161","14.1571"
"271.4000","4.5196","14.1671"
"271.6000","4.5230","14.1761"
"271.8000","4.5260","14.1826"
"272.0000","4.5301","14.1948"
"272.2000","4.5326","14.1994"
"272.4000","4.5362","14.2097"
"272.6000","4.5397","14.2189"
"272.8000","4.5427","14.2266"
"273.0000","4.5467","14.2392"
"273.2000","4.5493","14.2435"
"273.4000","4.5530","14.2541"
"273.6000","4.5564","14.2619"
"273.7760","4.5589","13.9144"
"273.7790","4.5589","13.2295"
"273.7810","4.5590","12.6231"
"273.7830","4.5590","11.9325"
"273.7850","4.5591","11.1816"
"273.7870","4.5592","10.3909"
"273.7890","4.5593","9.5781"
"273.7910","4.5594","8.7586"
"273.7920","4.5595","8.3506"