File: DestructiveTests/Tensile/FIBERGLASS TENSILE.is_qtest_Exports/FIBERGLASS TENSILE_4.csv
Time,Displacement,Force
(s),(mm),(kN)
"0.0000","-1.1786","0.0243"
"0.2000","-1.1782","0.0250"
"0.4000","-1.1779","0.0268"
"0.6000","-1.1716","0.0513"
"0.8000","-1.1696","0.0550"
"1.0000","-1.1654","0.0663"
"1.2000","-1.1624","0.0724"
"1.4000","-1.1589","0.0811"
"1.6000","-1.1554","0.0904"
"1.8000","-1.1525","0.1028"
"2.0000","-1.1486","0.1226"
"2.2000","-1.1457","0.1366"
"2.4000","-1.1423","0.1550"
"2.6000","-1.1389","0.1727"
"2.8000","-1.1358","0.1893"
"3.0000","-1.1320","0.2099"
"3.2000","-1.1291","0.2263"
"3.4000","-1.1255","0.2451"
"3.6000","-1.1223","0.2634"
"3.8000","-1.1192","0.2799"
"4.0000","-1.1154","0.3014"
"4.2000","-1.1124","0.3164"
"4.4000","-1.1087","0.3358"
"4.6000","-1.1056","0.3520"
"4.8000","-1.1024","0.3693"
"5.0000","-1.0988","0.3891"
"5.2000","-1.0958","0.4042"
"5.4000","-1.0921","0.4238"
"5.6000","-1.0890","0.4394"
"5.8000","-1.0857","0.4578"
"6.0000","-1.0821","0.4756"
"6.2000","-1.0792","0.4908"
"6.4000","-1.0753","0.5111"
"6.6000","-1.0724","0.5252"
"6.8000","-1.0690","0.5440"
"7.0000","-1.0655","0.5596"
"7.2000","-1.0624","0.5753"
"7.4000","-1.0587","0.5950"
"7.6000","-1.0558","0.6078"
"7.8000","-1.0523","0.6254"
"8.0000","-1.0489","0.6426"
"8.2000","-1.0458","0.6591"
"8.4000","-1.0421","0.6778"
"8.6000","-1.0390","0.6932"
"8.8000","-1.0356","0.7103"
"9.0000","-1.0323","0.7266"
"9.2000","-1.0289","0.7439"
"9.4000","-1.0256","0.7605"
"9.6000","-1.0223","0.7782"
"9.8000","-1.0189","0.7951"
"10.0000","-1.0155","0.8118"
"10.2000","-1.0121","0.8301"
"10.4000","-1.0091","0.8447"
"10.6000","-1.0055","0.8638"
"10.8000","-1.0023","0.8797"
"11.0000","-0.9991","0.8953"
"11.2000","-0.9954","0.9144"
"11.4000","-0.9925","0.9286"
"11.6000","-0.9888","0.9477"
"11.8000","-0.9857","0.9625"
"12.0000","-0.9824","0.9808"
"12.2000","-0.9786","1.0010"
"12.4000","-0.9759","1.0127"
"12.6000","-0.9720","1.0333"
"12.8000","-0.9691","1.0469"
"13.0000","-0.9657","1.0651"
"13.2000","-0.9618","1.0853"
"13.4000","-0.9592","1.0970"
"13.6000","-0.9552","1.1187"
"13.8000","-0.9524","1.1312"
"14.0000","-0.9492","1.1483"
"14.2000","-0.9452","1.1688"
"14.4000","-0.9426","1.1814"
"14.6000","-0.9386","1.2010"
"14.8000","-0.9356","1.2166"
"15.0000","-0.9325","1.2323"
"15.2000","-0.9287","1.2523"
"15.4000","-0.9259","1.2660"
"15.6000","-0.9220","1.2853"
"15.8000","-0.9189","1.2995"
"16.0000","-0.9157","1.3165"
"16.2000","-0.9121","1.3344"
"16.4000","-0.9092","1.3487"
"16.6000","-0.9054","1.3682"
"16.8000","-0.9023","1.3832"
"17.0000","-0.8990","1.3991"
"17.2000","-0.8955","1.4175"
"17.4000","-0.8924","1.4317"
"17.6000","-0.8888","1.4494"
"17.8000","-0.8855","1.4670"
"18.0000","-0.8824","1.4819"
"18.2000","-0.8790","1.4994"
"18.4000","-0.8755","1.5167"
"18.6000","-0.8723","1.5321"
"18.8000","-0.8688","1.5499"
"19.0000","-0.8657","1.5651"
"19.2000","-0.8623","1.5814"
"19.4000","-0.8587","1.5990"
"19.6000","-0.8557","1.6138"
"19.8000","-0.8522","1.6322"
"20.0000","-0.8491","1.6465"
"20.2000","-0.8457","1.6641"
"20.4000","-0.8418","1.6829"
"20.6000","-0.8392","1.6941"
"20.8000","-0.8354","1.7132"
"21.0000","-0.8324","1.7275"
"21.2000","-0.8291","1.7448"
"21.4000","-0.8250","1.7644"
"21.6000","-0.8226","1.7750"
"21.8000","-0.8187","1.7960"
"22.0000","-0.8157","1.8090"
"22.2000","-0.8125","1.8257"
"22.4000","-0.8085","1.8453"
"22.6000","-0.8060","1.8556"
"22.8000","-0.8021","1.8753"
"23.0000","-0.7991","1.8894"
"23.2000","-0.7958","1.9058"
"23.4000","-0.7918","1.9252"
"23.6000","-0.7893","1.9361"
"23.8000","-0.7854","1.9568"
"24.0000","-0.7823","1.9701"
"24.2000","-0.7791","1.9862"
"24.4000","-0.7753","2.0035"
"24.6000","-0.7725","2.0166"
"24.8000","-0.7686","2.0371"
"25.0000","-0.7656","2.0503"
"25.2000","-0.7624","2.0656"
"25.4000","-0.7588","2.0832"
"25.6000","-0.7558","2.0965"
"25.8000","-0.7521","2.1149"
"26.0000","-0.7489","2.1294"
"26.2000","-0.7457","2.1452"
"26.4000","-0.7422","2.1610"
"26.6000","-0.7390","2.1753"
"26.8000","-0.7356","2.1927"
"27.0000","-0.7321","2.2089"
"27.2000","-0.7290","2.2231"
"27.4000","-0.7256","2.2398"
"27.6000","-0.7221","2.2556"
"27.8000","-0.7190","2.2690"
"28.0000","-0.7155","2.2870"
"28.2000","-0.7124","2.3004"
"28.4000","-0.7090","2.3168"
"28.6000","-0.7052","2.3349"
"28.8000","-0.7025","2.3470"
"29.0000","-0.6988","2.3647"
"29.2000","-0.6957","2.3787"
"29.4000","-0.6925","2.3935"
"29.6000","-0.6884","2.4127"
"29.8000","-0.6859","2.4243"
"30.0000","-0.6822","2.4417"
"30.2000","-0.6790","2.4549"
"30.4000","-0.6758","2.4708"
"30.6000","-0.6717","2.4894"
"30.8000","-0.6693","2.5000"
"31.0000","-0.6655","2.5190"
"31.2000","-0.6623","2.5328"
"31.4000","-0.6591","2.5468"
"31.6000","-0.6551","2.5660"
"31.8000","-0.6527","2.5755"
"32.0000","-0.6487","2.5955"
"32.2000","-0.6456","2.6083"
"32.4000","-0.6425","2.6233"
"32.6000","-0.6386","2.6413"
"32.8000","-0.6360","2.6505"
"33.0000","-0.6320","2.6709"
"33.2000","-0.6288","2.6840"
"33.4000","-0.6257","2.6982"
"33.6000","-0.6221","2.7154"
"33.8000","-0.6191","2.7271"
"34.0000","-0.6154","2.7459"
"34.2000","-0.6123","2.7588"
"34.4000","-0.6092","2.7729"
"34.6000","-0.6055","2.7906"
"34.8000","-0.6023","2.8035"
"35.0000","-0.5988","2.8194"
"35.2000","-0.5956","2.8336"
"35.4000","-0.5923","2.8477"
"35.6000","-0.5889","2.8643"
"35.8000","-0.5855","2.8796"
"36.0000","-0.5823","2.8927"
"36.2000","-0.5789","2.9093"
"36.4000","-0.5757","2.9227"
"36.6000","-0.5724","2.9365"
"36.8000","-0.5686","2.9545"
"37.0000","-0.5657","2.9653"
"37.2000","-0.5622","2.9821"
"37.4000","-0.5589","2.9955"
"37.6000","-0.5557","3.0101"
"37.8000","-0.5518","3.0287"
"38.0000","-0.5492","3.0372"
"38.2000","-0.5456","3.0549"
"38.4000","-0.5423","3.0689"
"38.6000","-0.5391","3.0821"
"38.8000","-0.5351","3.1010"
"39.0000","-0.5326","3.1106"
"39.2000","-0.5288","3.1274"
"39.4000","-0.5255","3.1410"
"39.6000","-0.5225","3.1542"
"39.8000","-0.5185","3.1735"
"40.0000","-0.5159","3.1827"
"40.2000","-0.5121","3.2005"
"40.4000","-0.5088","3.2128"
"40.6000","-0.5059","3.2252"
"40.8000","-0.5018","3.2449"
"41.0000","-0.4993","3.2535"
"41.2000","-0.4955","3.2721"
"41.4000","-0.4922","3.2842"
"41.6000","-0.4891","3.2971"
"41.8000","-0.4853","3.3140"
"42.0000","-0.4824","3.3255"
"42.2000","-0.4788","3.3431"
"42.4000","-0.4756","3.3553"
"42.6000","-0.4724","3.3687"
"42.8000","-0.4687","3.3850"
"43.0000","-0.4657","3.3974"
"43.2000","-0.4622","3.4120"
"43.4000","-0.4588","3.4264"
"43.6000","-0.4557","3.4389"
"43.8000","-0.4523","3.4526"
"44.0000","-0.4489","3.4680"
"44.2000","-0.4456","3.4811"
"44.4000","-0.4422","3.4956"
"44.6000","-0.4390","3.5078"
"44.8000","-0.4356","3.5220"
"45.0000","-0.4321","3.5380"
"45.2000","-0.4291","3.5487"
"45.4000","-0.4256","3.5642"
"45.6000","-0.4222","3.5781"
"45.8000","-0.4191","3.5912"
"46.0000","-0.4153","3.6068"
"46.2000","-0.4125","3.6165"
"46.4000","-0.4089","3.6324"
"46.6000","-0.4056","3.6455"
"46.8000","-0.4025","3.6587"
"47.0000","-0.3984","3.6776"
"47.2000","-0.3959","3.6856"
"47.4000","-0.3923","3.7005"
"47.6000","-0.3888","3.7143"
"47.8000","-0.3858","3.7268"
"48.0000","-0.3818","3.7457"
"48.2000","-0.3793","3.7536"
"48.4000","-0.3756","3.7686"
"48.6000","-0.3721","3.7832"
"48.8000","-0.3692","3.7940"
"49.0000","-0.3651","3.8116"
"49.2000","-0.3626","3.8197"
"49.4000","-0.3589","3.8364"
"49.6000","-0.3555","3.8497"
"49.8000","-0.3526","3.8602"
"50.0000","-0.3486","3.8790"
"50.2000","-0.3459","3.8881"
"50.4000","-0.3421","3.9045"
"50.6000","-0.3388","3.9164"
"50.8000","-0.3359","3.9269"
"51.0000","-0.3319","3.9451"
"51.2000","-0.3290","3.9551"
"51.4000","-0.3255","3.9696"
"51.6000","-0.3222","3.9813"
"51.8000","-0.3192","3.9880"
"52.0000","-0.3155","3.9974"
"52.2000","-0.3123","4.0072"
"52.4000","-0.3089","4.0180"
"52.6000","-0.3056","4.0301"
"52.8000","-0.3023","4.0417"
"53.0000","-0.2989","4.0541"
"53.2000","-0.2954","4.0684"
"53.4000","-0.2923","4.0790"
"53.6000","-0.2889","4.0902"
"53.8000","-0.2857","4.1011"
"54.0000","-0.2823","4.1143"
"54.2000","-0.2787","4.1283"
"54.4000","-0.2758","4.1383"
"54.6000","-0.2723","4.1528"
"54.8000","-0.2688","4.1653"
"55.0000","-0.2658","4.1756"
"55.2000","-0.2620","4.1913"
"55.4000","-0.2592","4.1997"
"55.6000","-0.2556","4.2155"
"55.8000","-0.2521","4.2293"
"56.0000","-0.2491","4.2390"
"56.2000","-0.2451","4.2553"
"56.4000","-0.2426","4.2632"
"56.6000","-0.2390","4.2773"
"56.8000","-0.2354","4.2916"
"57.0000","-0.2326","4.3012"
"57.2000","-0.2284","4.3185"
"57.4000","-0.2260","4.3237"
"57.6000","-0.2223","4.3384"
"57.8000","-0.2187","4.3537"
"58.0000","-0.2160","4.3625"
"58.2000","-0.2119","4.3796"
"58.4000","-0.2092","4.3878"
"58.6000","-0.2056","4.4020"
"58.8000","-0.2021","4.4142"
"59.0000","-0.1992","4.4239"
"59.2000","-0.1952","4.4406"
"59.4000","-0.1924","4.4485"
"59.6000","-0.1888","4.4632"
"59.8000","-0.1855","4.4742"
"60.0000","-0.1825","4.4830"
"60.2000","-0.1787","4.4981"
"60.4000","-0.1756","4.5102"
"60.6000","-0.1722","4.5221"
"60.8000","-0.1689","4.5345"
"61.0000","-0.1657","4.5461"
"61.2000","-0.1622","4.5598"
"61.4000","-0.1589","4.5703"
"61.6000","-0.1556","4.5818"
"61.8000","-0.1522","4.5946"
"62.0000","-0.1490","4.6061"
"62.2000","-0.1456","4.6181"
"62.4000","-0.1420","4.6332"
"62.6000","-0.1390","4.6421"
"62.8000","-0.1356","4.6554"
"63.0000","-0.1322","4.6681"
"63.2000","-0.1290","4.6795"
"63.4000","-0.1253","4.6944"
"63.6000","-0.1225","4.7027"
"63.8000","-0.1191","4.7152"
"64.0000","-0.1154","4.7281"
"64.2000","-0.1124","4.7361"
"64.4000","-0.1085","4.7521"
"64.6000","-0.1059","4.7584"
"64.8000","-0.1023","4.7718"
"65.0000","-0.0986","4.7856"
"65.2000","-0.0958","4.7941"
"65.4000","-0.0917","4.8102"
"65.6000","-0.0893","4.8160"
"65.8000","-0.0856","4.8308"
"66.0000","-0.0820","4.8451"
"66.2000","-0.0792","4.8523"
"66.4000","-0.0751","4.8691"
"66.6000","-0.0726","4.8746"
"66.8000","-0.0690","4.8868"
"67.0000","-0.0653","4.9007"
"67.2000","-0.0626","4.9085"
"67.4000","-0.0586","4.9244"
"67.6000","-0.0557","4.9324"
"67.8000","-0.0522","4.9461"
"68.0000","-0.0487","4.9578"
"68.2000","-0.0459","4.9655"
"68.4000","-0.0419","4.9812"
"68.6000","-0.0390","4.9909"
"68.8000","-0.0356","5.0011"
"69.0000","-0.0320","5.0139"
"69.2000","-0.0292","5.0215"
"69.4000","-0.0254","5.0373"
"69.6000","-0.0222","5.0478"
"69.8000","-0.0190","5.0574"
"70.0000","-0.0156","5.0694"
"70.2000","-0.0123","5.0804"
"70.4000","-0.0089","5.0921"
"70.6000","-0.0054","5.1050"
"70.8000","-0.0024","5.1148"
"71.0000","0.0011","5.1250"
"71.2000","0.0045","5.1362"
"71.4000","0.0077","5.1465"
"71.6000","0.0113","5.1592"
"71.8000","0.0142","5.1675"
"72.0000","0.0177","5.1805"
"72.2000","0.0214","5.1941"
"72.4000","0.0242","5.2021"
"72.6000","0.0280","5.2159"
"72.8000","0.0308","5.2242"
"73.0000","0.0343","5.2368"
"73.2000","0.0381","5.2518"
"73.4000","0.0408","5.2578"
"73.6000","0.0448","5.2749"
"73.8000","0.0475","5.2811"
"74.0000","0.0509","5.2928"
"74.2000","0.0548","5.3090"
"74.4000","0.0574","5.3147"
"74.6000","0.0615","5.3308"
"74.8000","0.0642","5.3377"
"75.0000","0.0676","5.3502"
"75.2000","0.0714","5.3624"
"75.4000","0.0740","5.3694"
"75.6000","0.0781","5.3858"
"75.8000","0.0809","5.3938"
"76.0000","0.0843","5.4045"
"76.2000","0.0880","5.4177"
"76.4000","0.0907","5.4252"
"76.6000","0.0948","5.4400"
"76.8000","0.0977","5.4481"
"77.0000","0.1011","5.4594"
"77.2000","0.1045","5.4721"
"77.4000","0.1075","5.4794"
"77.6000","0.1113","5.4942"
"77.8000","0.1145","5.5034"
"78.0000","0.1177","5.5146"
"78.2000","0.1211","5.5258"
"78.4000","0.1242","5.5342"
"78.6000","0.1278","5.5475"
"78.8000","0.1311","5.5577"
"79.0000","0.1344","5.5684"
"79.2000","0.1378","5.5798"
"79.4000","0.1411","5.5925"
"79.6000","0.1444","5.6015"
"79.8000","0.1479","5.6137"
"80.0000","0.1509","5.6223"
"80.2000","0.1544","5.6334"
"80.4000","0.1580","5.6459"
"80.6000","0.1609","5.6540"
"80.8000","0.1646","5.6672"
"81.0000","0.1676","5.6755"
"81.2000","0.1709","5.6851"
"81.4000","0.1748","5.6984"
"81.6000","0.1775","5.7060"
"81.8000","0.1814","5.7208"
"82.0000","0.1842","5.7287"
"82.2000","0.1876","5.7389"
"82.4000","0.1915","5.7549"
"82.6000","0.1941","5.7611"
"82.8000","0.1981","5.7746"
"83.0000","0.2009","5.7820"
"83.2000","0.2043","5.7939"
"83.4000","0.2082","5.8090"
"83.6000","0.2107","5.8144"
"83.8000","0.2148","5.8298"
"84.0000","0.2176","5.8360"
"84.2000","0.2209","5.8465"
"84.4000","0.2248","5.8605"
"84.6000","0.2274","5.8664"
"84.8000","0.2314","5.8815"
"85.0000","0.2343","5.8892"
"85.2000","0.2376","5.8997"
"85.4000","0.2413","5.9131"
"85.6000","0.2441","5.9203"
"85.8000","0.2480","5.9343"
"86.0000","0.2511","5.9422"
"86.2000","0.2543","5.9525"
"86.4000","0.2579","5.9644"
"86.6000","0.2609","5.9725"
"86.8000","0.2645","5.9850"
"87.0000","0.2677","5.9947"
"87.2000","0.2710","6.0047"
"87.4000","0.2745","6.0150"
"87.6000","0.2776","6.0245"
"87.8000","0.2811","6.0356"
"88.0000","0.2844","6.0464"
"88.2000","0.2877","6.0561"
"88.4000","0.2910","6.0670"
"88.6000","0.2945","6.0786"
"88.8000","0.2977","6.0876"
"89.0000","0.3011","6.0981"
"89.2000","0.3043","6.1082"
"89.4000","0.3077","6.1174"
"89.6000","0.3114","6.1307"
"89.8000","0.3142","6.1371"
"90.0000","0.3178","6.1499"
"90.2000","0.3209","6.1575"
"90.4000","0.3242","6.1669"
"90.6000","0.3282","6.1811"
"90.8000","0.3308","6.1858"
"91.0000","0.3346","6.1998"
"91.2000","0.3377","6.2081"
"91.4000","0.3409","6.2168"
"91.6000","0.3449","6.2315"
"91.8000","0.3473","6.2353"
"92.0000","0.3513","6.2490"
"92.2000","0.3543","6.2553"
"92.4000","0.3575","6.2665"
"92.6000","0.3615","6.2801"
"92.8000","0.3640","6.2847"
"93.0000","0.3681","6.2995"
"93.2000","0.3709","6.3064"
"93.4000","0.3742","6.3160"
"93.6000","0.3780","6.3276"
"93.8000","0.3807","6.3336"
"94.0000","0.3847","6.3485"
"94.2000","0.3878","6.3555"
"94.4000","0.3910","6.3648"
"94.6000","0.3946","6.3759"
"94.8000","0.3975","6.3825"
"95.0000","0.4014","6.3967"
"95.2000","0.4044","6.4038"
"95.4000","0.4076","6.4128"
"95.6000","0.4112","6.4235"
"95.8000","0.4143","6.4329"
"96.0000","0.4178","6.4434"
"96.2000","0.4211","6.4532"
"96.4000","0.4244","6.4623"
"96.6000","0.4278","6.4732"
"96.8000","0.4312","6.4837"
"97.0000","0.4344","6.4917"
"97.2000","0.4377","6.5003"
"97.4000","0.4410","6.5106"
"97.6000","0.4442","6.5191"
"97.8000","0.4481","6.5331"
"98.0000","0.4509","6.5391"
"98.2000","0.4544","6.5504"
"98.4000","0.4576","6.5591"
"98.6000","0.4610","6.5686"
"98.8000","0.4648","6.5812"
"99.0000","0.4674","6.5872"
"99.2000","0.4712","6.5991"
"99.4000","0.4743","6.6074"
"99.6000","0.4776","6.6171"
"99.8000","0.4817","6.6327"
"100.0000","0.4840","6.6354"
"100.2000","0.4879","6.6477"
"100.4000","0.4910","6.6551"
"100.6000","0.4941","6.6639"
"100.8000","0.4983","6.6799"
"101.0000","0.5007","6.6827"
"101.2000","0.5047","6.6964"
"101.4000","0.5077","6.7029"
"101.6000","0.5109","6.7127"
"101.8000","0.5148","6.7257"
"102.0000","0.5173","6.7298"
"102.2000","0.5215","6.7449"
"102.4000","0.5244","6.7523"
"102.6000","0.5275","6.7605"
"102.8000","0.5315","6.7740"
"103.0000","0.5341","6.7784"
"103.2000","0.5380","6.7921"
"103.4000","0.5412","6.7997"
"103.6000","0.5442","6.8070"
"103.8000","0.5479","6.8188"
"104.0000","0.5509","6.8266"
"104.2000","0.5546","6.8380"
"104.4000","0.5578","6.8478"
"104.6000","0.5609","6.8553"
"104.8000","0.5644","6.8652"
"105.0000","0.5678","6.8765"
"105.2000","0.5711","6.8851"
"105.4000","0.5745","6.8942"
"105.6000","0.5776","6.9022"
"105.8000","0.5811","6.9127"
"106.0000","0.5846","6.9229"
"106.2000","0.5876","6.9289"
"106.4000","0.5911","6.9399"
"106.6000","0.5944","6.9484"
"106.8000","0.5977","6.9585"
"107.0000","0.6015","6.9702"
"107.2000","0.6042","6.9745"
"107.4000","0.6078","6.9864"
"107.6000","0.6110","6.9954"
"107.8000","0.6142","7.0038"
"108.0000","0.6183","7.0169"
"108.2000","0.6208","7.0201"
"108.4000","0.6245","7.0330"
"108.6000","0.6278","7.0414"
"108.8000","0.6309","7.0490"
"109.0000","0.6348","7.0620"
"109.2000","0.6374","7.0666"
"109.4000","0.6412","7.0789"
"109.6000","0.6444","7.0871"
"109.8000","0.6475","7.0951"
"110.0000","0.6516","7.1097"
"110.2000","0.6540","7.1136"
"110.4000","0.6579","7.1257"
"110.6000","0.6611","7.1344"
"110.8000","0.6641","7.1410"
"111.0000","0.6681","7.1549"
"111.2000","0.6708","7.1599"
"111.4000","0.6746","7.1733"
"111.6000","0.6778","7.1807"
"111.8000","0.6808","7.1880"
"112.0000","0.6847","7.2005"
"112.2000","0.6876","7.2074"
"112.4000","0.6913","7.2185"
"112.6000","0.6944","7.2272"
"112.8000","0.6976","7.2360"
"113.0000","0.7011","7.2461"
"113.2000","0.7044","7.2551"
"113.4000","0.7078","7.2650"
"113.6000","0.7111","7.2745"
"113.8000","0.7144","7.2825"
"114.0000","0.7177","7.2915"
"114.2000","0.7212","7.3029"
"114.4000","0.7243","7.3110"
"114.6000","0.7279","7.3212"
"114.8000","0.7310","7.3297"
"115.0000","0.7344","7.3386"
"115.2000","0.7381","7.3507"
"115.4000","0.7409","7.3567"
"115.6000","0.7444","7.3670"
"115.8000","0.7478","7.3764"
"116.0000","0.7509","7.3847"
"116.2000","0.7547","7.3973"
"116.4000","0.7575","7.4029"
"116.6000","0.7611","7.4143"
"116.8000","0.7645","7.4240"
"117.0000","0.7675","7.4325"
"117.2000","0.7715","7.4460"
"117.4000","0.7741","7.4503"
"117.6000","0.7779","7.4622"
"117.8000","0.7813","7.4724"
"118.0000","0.7842","7.4786"
"118.2000","0.7882","7.4929"
"118.4000","0.7907","7.4967"
"118.6000","0.7945","7.5091"
"118.8000","0.7979","7.5193"
"119.0000","0.8008","7.5258"
"119.2000","0.8048","7.5393"
"119.4000","0.8075","7.5449"
"119.6000","0.8112","7.5571"
"119.8000","0.8145","7.5660"
"120.0000","0.8175","7.5743"
"120.2000","0.8214","7.5879"
"120.4000","0.8242","7.5941"
"120.6000","0.8279","7.6048"
"120.8000","0.8311","7.6131"
"121.0000","0.8342","7.6202"
"121.2000","0.8380","7.6334"
"121.4000","0.8410","7.6409"
"121.6000","0.8445","7.6521"
"121.8000","0.8477","7.6597"
"122.0000","0.8509","7.6682"
"122.2000","0.8544","7.6794"
"122.4000","0.8579","7.6894"
"122.6000","0.8610","7.6978"
"122.8000","0.8644","7.7071"
"123.0000","0.8677","7.7175"
"123.2000","0.8711","7.7267"
"123.4000","0.8746","7.7369"
"123.6000","0.8777","7.7447"
"123.8000","0.8811","7.7553"
"124.0000","0.8845","7.7645"
"124.2000","0.8876","7.7725"
"124.4000","0.8914","7.7843"
"124.6000","0.8942","7.7910"
"124.8000","0.8977","7.8013"
"125.0000","0.9012","7.8123"
"125.2000","0.9042","7.8194"
"125.4000","0.9082","7.8326"
"125.6000","0.9107","7.8371"
"125.8000","0.9144","7.8489"
"126.0000","0.9179","7.8581"
"126.2000","0.9209","7.8650"
"126.4000","0.9248","7.8782"
"126.6000","0.9274","7.8825"
"126.8000","0.9311","7.8942"
"127.0000","0.9345","7.9029"
"127.2000","0.9374","7.9102"
"127.4000","0.9416","7.9240"
"127.6000","0.9441","7.9278"
"127.8000","0.9476","7.9376"
"128.0000","0.9513","7.9490"
"128.2000","0.9541","7.9545"
"128.4000","0.9581","7.9680"
"128.6000","0.9608","7.9731"
"128.8000","0.9646","7.9853"
"129.0000","0.9679","7.9950"
"129.2000","0.9708","8.0010"
"129.4000","0.9747","8.0130"
"129.6000","0.9776","8.0197"
"129.8000","0.9812","8.0307"
"130.0000","0.9844","8.0389"
"130.2000","0.9876","8.0479"
"130.4000","0.9912","8.0586"
"130.6000","0.9943","8.0663"
"130.8000","0.9978","8.0773"
"131.0000","1.0010","8.0856"
"131.2000","1.0042","8.0934"
"131.4000","1.0077","8.1034"
"131.6000","1.0112","8.1135"
"131.8000","1.0144","8.1220"
"132.0000","1.0177","8.1314"
"132.2000","1.0212","8.1412"
"132.4000","1.0243","8.1496"
"132.6000","1.0279","8.1607"
"132.8000","1.0309","8.1669"
"133.0000","1.0344","8.1769"
"133.2000","1.0379","8.1873"
"133.4000","1.0408","8.1951"
"133.6000","1.0448","8.2080"
"133.8000","1.0474","8.2122"
"134.0000","1.0510","8.2227"
"134.2000","1.0547","8.2350"
"134.4000","1.0575","8.2409"
"134.6000","1.0615","8.2534"
"134.8000","1.0640","8.2575"
"135.0000","1.0677","8.2702"
"135.2000","1.0714","8.2808"
"135.4000","1.0741","8.2863"
"135.6000","1.0782","8.3010"
"135.8000","1.0808","8.3045"
"136.0000","1.0844","8.3169"
"136.2000","1.0880","8.3277"
"136.4000","1.0907","8.3333"
"136.6000","1.0950","8.3475"
"136.8000","1.0974","8.3515"
"137.0000","1.1011","8.3634"
"137.2000","1.1047","8.3744"
"137.4000","1.1074","8.3794"
"137.6000","1.1114","8.3927"
"137.8000","1.1143","8.3999"
"138.0000","1.1179","8.4101"
"138.2000","1.1211","8.4176"
"138.4000","1.1242","8.4242"
"138.6000","1.1281","8.4377"
"138.8000","1.1311","8.4440"
"139.0000","1.1344","8.4534"
"139.2000","1.1377","8.4632"
"139.4000","1.1409","8.4719"
"139.6000","1.1445","8.4829"
"139.8000","1.1478","8.4923"
"140.0000","1.1511","8.5004"
"140.2000","1.1545","8.5108"
"140.4000","1.1577","8.5193"
"140.6000","1.1611","8.5283"
"140.8000","1.1646","8.5394"
"141.0000","1.1677","8.5461"
"141.2000","1.1711","8.5577"
"141.4000","1.1747","8.5676"
"141.6000","1.1776","8.5738"
"141.8000","1.1814","8.5845"
"142.0000","1.1842","8.5913"
"142.2000","1.1877","8.6024"
"142.4000","1.1914","8.6137"
"142.6000","1.1941","8.6185"
"142.8000","1.1981","8.6320"
"143.0000","1.2008","8.6373"
"143.2000","1.2043","8.6469"
"143.4000","1.2081","8.6589"
"143.6000","1.2108","8.6641"
"143.8000","1.2150","8.6799"
"144.0000","1.2174","8.6826"
"144.2000","1.2209","8.6936"
"144.4000","1.2248","8.7056"
"144.6000","1.2274","8.7105"
"144.8000","1.2315","8.7245"
"145.0000","1.2341","8.7287"
"145.2000","1.2376","8.7391"
"145.4000","1.2413","8.7512"
"145.6000","1.2440","8.7563"
"145.8000","1.2481","8.7702"
"146.0000","1.2509","8.7767"
"146.2000","1.2544","8.7861"
"146.4000","1.2579","8.7974"
"146.6000","1.2608","8.8037"
"146.8000","1.2647","8.8167"
"147.0000","1.2677","8.8232"
"147.2000","1.2711","8.8329"
"147.4000","1.2745","8.8423"
"147.6000","1.2775","8.8493"
"147.8000","1.2812","8.8604"
"148.0000","1.2845","8.8689"
"148.2000","1.2878","8.8787"
"148.4000","1.2911","8.8870"
"148.6000","1.2943","8.8945"
"148.8000","1.2977","8.9039"
"149.0000","1.3012","8.9148"
"149.2000","1.3043","8.9215"
"149.4000","1.3078","8.9315"
"149.6000","1.3112","8.9412"
"149.8000","1.3143","8.9487"
"150.0000","1.3178","8.9601"
"150.2000","1.3209","8.9669"
"150.4000","1.3243","8.9758"
"150.6000","1.3281","8.9870"
"150.8000","1.3308","8.9930"
"151.0000","1.3346","9.0048"
"151.2000","1.3375","9.0110"
"151.4000","1.3409","9.0212"
"151.6000","1.3448","9.0336"
"151.8000","1.3474","9.0383"
"152.0000","1.3514","9.0510"
"152.2000","1.3542","9.0556"
"152.4000","1.3576","9.0630"
"152.6000","1.3615","9.0756"
"152.8000","1.3640","9.0787"
"153.0000","1.3681","9.0913"
"153.2000","1.3709","9.0963"
"153.4000","1.3743","9.1042"
"153.6000","1.3781","9.1161"
"153.8000","1.3807","9.1202"
"154.0000","1.3848","9.1331"
"154.2000","1.3876","9.1382"
"154.4000","1.3909","9.1481"
"154.6000","1.3946","9.1602"
"154.8000","1.3974","9.1648"
"155.0000","1.4015","9.1791"
"155.2000","1.4044","9.1848"
"155.4000","1.4077","9.1943"
"155.6000","1.4112","9.2048"
"155.8000","1.4142","9.2110"
"156.0000","1.4180","9.2229"
"156.2000","1.4211","9.2302"
"156.4000","1.4243","9.2388"
"156.6000","1.4278","9.2487"
"156.8000","1.4310","9.2567"
"157.0000","1.4345","9.2661"
"157.2000","1.4378","9.2755"
"157.4000","1.4410","9.2836"
"157.6000","1.4444","9.2928"
"157.8000","1.4479","9.3024"
"158.0000","1.4511","9.3104"
"158.2000","1.4545","9.3205"
"158.4000","1.4576","9.3279"
"158.6000","1.4610","9.3375"
"158.8000","1.4647","9.3485"
"159.0000","1.4676","9.3552"
"159.2000","1.4712","9.3660"
"159.4000","1.4743","9.3726"
"159.6000","1.4776","9.3810"
"159.8000","1.4815","9.3938"
"160.0000","1.4841","9.3980"
"160.2000","1.4879","9.4095"
"160.4000","1.4909","9.4170"
"160.6000","1.4942","9.4253"
"160.8000","1.4982","9.4387"
"161.0000","1.5008","9.4423"
"161.2000","1.5047","9.4548"
"161.4000","1.5076","9.4607"
"161.6000","1.5109","9.4699"
"161.8000","1.5149","9.4830"
"162.0000","1.5174","9.4864"
"162.2000","1.5213","9.5000"
"162.4000","1.5243","9.5058"
"162.6000","1.5275","9.5153"
"162.8000","1.5314","9.5275"
"163.0000","1.5340","9.5317"
"163.2000","1.5380","9.5441"
"163.4000","1.5410","9.5517"
"163.6000","1.5443","9.5605"
"163.8000","1.5481","9.5724"
"164.0000","1.5507","9.5777"
"164.2000","1.5547","9.5906"
"164.4000","1.5577","9.5980"
"164.6000","1.5610","9.6062"
"164.8000","1.5646","9.6161"
"165.0000","1.5675","9.6221"
"165.2000","1.5712","9.6344"
"165.4000","1.5745","9.6427"
"165.6000","1.5777","9.6507"
"165.8000","1.5811","9.6607"
"166.0000","1.5844","9.6689"
"166.2000","1.5878","9.6795"
"166.4000","1.5911","9.6876"
"166.6000","1.5943","9.6953"
"166.8000","1.5978","9.7048"
"167.0000","1.6012","9.7150"
"167.2000","1.6044","9.7231"
"167.4000","1.6079","9.7335"
"167.6000","1.6109","9.7410"
"167.8000","1.6143","9.7495"
"168.0000","1.6181","9.7626"
"168.2000","1.6209","9.7680"
"168.4000","1.6245","9.7784"
"168.6000","1.6276","9.7855"
"168.8000","1.6310","9.7951"
"169.0000","1.6349","9.8067"
"169.2000","1.6374","9.8109"
"169.4000","1.6411","9.8214"
"169.6000","1.6442","9.8285"
"169.8000","1.6477","9.8387"
"170.0000","1.6517","9.8502"
"170.2000","1.6540","9.8520"
"170.4000","1.6580","9.8642"
"170.6000","1.6610","9.8714"
"170.8000","1.6643","9.8798"
"171.0000","1.6682","9.8911"
"171.2000","1.6707","9.8951"
"171.4000","1.6747","9.9080"
"171.6000","1.6777","9.9153"
"171.8000","1.6809","9.9236"
"172.0000","1.6847","9.9348"
"172.2000","1.6873","9.9390"
"172.4000","1.6914","9.9528"
"172.6000","1.6944","9.9587"
"172.8000","1.6976","9.9665"
"173.0000","1.7014","9.9789"
"173.2000","1.7042","9.9840"
"173.4000","1.7079","9.9954"
"173.6000","1.7111","10.0038"
"173.8000","1.7143","10.0110"
"174.0000","1.7178","10.0210"
"174.2000","1.7210","10.0289"
"174.4000","1.7244","10.0392"
"174.6000","1.7278","10.0484"
"174.8000","1.7310","10.0564"
"175.0000","1.7344","10.0659"
"175.2000","1.7379","10.0755"
"175.4000","1.7411","10.0839"
"175.6000","1.7444","10.0924"
"175.8000","1.7477","10.1001"
"176.0000","1.7510","10.1098"
"176.2000","1.7547","10.1215"
"176.4000","1.7576","10.1267"
"176.6000","1.7612","10.1379"
"176.8000","1.7644","10.1458"
"177.0000","1.7676","10.1544"
"177.2000","1.7716","10.1664"
"177.4000","1.7741","10.1704"
"177.6000","1.7778","10.1817"
"177.8000","1.7810","10.1895"
"178.0000","1.7841","10.1977"
"178.2000","1.7884","10.2116"
"178.4000","1.7907","10.2151"
"178.6000","1.7946","10.2268"
"178.8000","1.7977","10.2347"
"179.0000","1.8008","10.2430"
"179.2000","1.8049","10.2564"
"179.4000","1.8073","10.2592"
"179.6000","1.8112","10.2711"
"179.8000","1.8144","10.2800"
"180.0000","1.8175","10.2872"
"180.2000","1.8215","10.3005"
"180.4000","1.8240","10.3037"
"180.6000","1.8279","10.3180"
"180.8000","1.8311","10.3258"
"181.0000","1.8342","10.3331"
"181.2000","1.8381","10.3444"
"181.4000","1.8408","10.3494"
"181.6000","1.8447","10.3624"
"181.8000","1.8478","10.3695"
"182.0000","1.8509","10.3779"
"182.2000","1.8545","10.3879"
"182.4000","1.8577","10.3968"
"182.6000","1.8612","10.4066"
"182.8000","1.8644","10.4144"
"183.0000","1.8676","10.4229"
"183.2000","1.8711","10.4329"
"183.4000","1.8744","10.4416"
"183.6000","1.8778","10.4509"
"183.8000","1.8811","10.4604"
"184.0000","1.8843","10.4679"
"184.2000","1.8877","10.4785"
"184.4000","1.8913","10.4885"
"184.6000","1.8943","10.4949"
"184.8000","1.8978","10.5042"
"185.0000","1.9011","10.5133"
"185.2000","1.9043","10.5223"
"185.4000","1.9082","10.5345"
"185.6000","1.9109","10.5396"
"185.8000","1.9143","10.5482"
"186.0000","1.9177","10.5589"
"186.2000","1.9209","10.5663"
"186.4000","1.9249","10.5785"
"186.6000","1.9274","10.5825"
"186.8000","1.9311","10.5939"
"187.0000","1.9345","10.6035"
"187.2000","1.9375","10.6099"
"187.4000","1.9416","10.6233"
"187.6000","1.9440","10.6265"
"187.8000","1.9478","10.6387"
"188.0000","1.9512","10.6474"
"188.2000","1.9541","10.6540"
"188.4000","1.9582","10.6664"
"188.6000","1.9608","10.6712"
"188.8000","1.9645","10.6829"
"189.0000","1.9679","10.6917"
"189.2000","1.9706","10.6980"
"189.4000","1.9748","10.7111"
"189.6000","1.9775","10.7167"
"189.8000","1.9812","10.7284"
"190.0000","1.9845","10.7357"
"190.2000","1.9875","10.7425"
"190.4000","1.9913","10.7545"
"190.6000","1.9942","10.7608"
"190.8000","1.9979","10.7711"
"191.0000","2.0010","10.7789"
"191.2000","2.0042","10.7862"
"191.4000","2.0078","10.7975"
"191.6000","2.0110","10.8053"
"191.8000","2.0144","10.8139"
"192.0000","2.0177","10.8212"
"192.2000","2.0210","10.8297"
"192.4000","2.0244","10.8395"
"192.6000","2.0279","10.8482"
"192.8000","2.0309","10.8556"
"193.0000","2.0345","10.8650"
"193.2000","2.0378","10.8737"
"193.4000","2.0410","10.8815"
"193.6000","2.0447","10.8916"
"193.8000","2.0475","10.8970"
"194.0000","2.0510","10.9057"
"194.2000","2.0545","10.9160"
"194.4000","2.0575","10.9224"
"194.6000","2.0614","10.9341"
"194.8000","2.0641","10.9393"
"195.0000","2.0677","10.9480"
"195.2000","2.0712","10.9571"
"195.4000","2.0742","10.9640"
"195.6000","2.0782","10.9759"
"195.8000","2.0808","10.9791"
"196.0000","2.0844","10.9892"
"196.2000","2.0879","10.9988"
"196.4000","2.0908","11.0043"
"196.6000","2.0949","11.0168"
"196.8000","2.0974","11.0203"
"197.0000","2.1011","11.0299"
"197.2000","2.1045","11.0392"
"197.4000","2.1074","11.0443"
"197.6000","2.1115","11.0567"
"197.8000","2.1141","11.0606"
"198.0000","2.1178","11.0707"
"198.2000","2.1211","11.0791"
"198.4000","2.1241","11.0848"
"198.6000","2.1281","11.0959"
"198.8000","2.1309","11.1008"
"199.0000","2.1345","11.1100"
"199.2000","2.1378","11.1181"
"199.4000","2.1409","11.1238"
"199.6000","2.1446","11.1342"
"199.8000","2.1477","11.1404"
"200.0000","2.1512","11.1489"
"200.2000","2.1544","11.1563"
"200.4000","2.1575","11.1631"
"200.6000","2.1611","11.1720"
"200.8000","2.1644","11.1799"
"201.0000","2.1678","11.1878"
"201.2000","2.1711","11.1960"
"201.4000","2.1744","11.2040"
"201.6000","2.1777","11.2116"
"201.8000","2.1814","11.2214"
"202.0000","2.1843","11.2264"
"202.2000","2.1877","11.2345"
"202.4000","2.1912","11.2432"
"202.6000","2.1943","11.2488"
"202.8000","2.1980","11.2584"
"203.0000","2.2008","11.2621"
"203.2000","2.2043","11.2697"
"203.4000","2.2080","11.2804"
"203.6000","2.2109","11.2855"
"203.8000","2.2148","11.2953"
"204.0000","2.2174","11.2986"
"204.2000","2.2210","11.3079"
"204.4000","2.2247","11.3170"
"204.6000","2.2275","11.3221"
"204.8000","2.2316","11.3335"
"205.0000","2.2341","11.3364"
"205.2000","2.2377","11.3457"
"205.4000","2.2414","11.3558"
"205.6000","2.2441","11.3610"
"205.8000","2.2482","11.3730"
"206.0000","2.2507","11.3762"
"206.2000","2.2544","11.3859"
"206.4000","2.2580","11.3957"
"206.6000","2.2607","11.4010"
"206.8000","2.2647","11.4135"
"207.0000","2.2675","11.4192"
"207.2000","2.2711","11.4288"
"207.4000","2.2747","11.4390"
"207.6000","2.2774","11.4442"
"207.8000","2.2814","11.4554"
"208.0000","2.2843","11.4606"
"208.2000","2.2878","11.4706"
"208.4000","2.2912","11.4798"
"208.6000","2.2942","11.4856"
"208.8000","2.2980","11.4970"
"209.0000","2.3011","11.5033"
"209.2000","2.3044","11.5114"
"209.4000","2.3078","11.5203"
"209.6000","2.3110","11.5277"
"209.8000","2.3144","11.5360"
"210.0000","2.3179","11.5449"
"210.2000","2.3211","11.5523"
"210.4000","2.3244","11.5614"
"210.6000","2.3278","11.5691"
"210.8000","2.3310","11.5769"
"211.0000","2.3346","11.5862"
"211.2000","2.3376","11.5927"
"211.4000","2.3410","11.6018"
"211.6000","2.3446","11.6109"
"211.8000","2.3476","11.6176"
"212.0000","2.3513","11.6279"
"212.2000","2.3542","11.6337"
"212.4000","2.3576","11.6436"
"212.6000","2.3615","11.6544"
"212.8000","2.3641","11.6598"
"213.0000","2.3680","11.6710"
"213.2000","2.3708","11.6759"
"213.4000","2.3743","11.6864"
"213.6000","2.3780","11.6964"
"213.8000","2.3807","11.7011"
"214.0000","2.3848","11.7144"
"214.2000","2.3875","11.7189"
"214.4000","2.3910","11.7278"
"214.6000","2.3947","11.7389"
"214.8000","2.3974","11.7436"
"215.0000","2.4015","11.7566"
"215.2000","2.4042","11.7621"
"215.4000","2.4077","11.7710"
"215.6000","2.4113","11.7808"
"215.8000","2.4140","11.7856"
"216.0000","2.4181","11.7990"
"216.2000","2.4210","11.8044"
"216.4000","2.4244","11.8134"
"216.6000","2.4278","11.8225"
"216.8000","2.4308","11.8292"
"217.0000","2.4347","11.8417"
"217.2000","2.4378","11.8474"
"217.4000","2.4411","11.8564"
"217.6000","2.4444","11.8646"
"217.8000","2.4476","11.8712"
"218.0000","2.4511","11.8822"
"218.2000","2.4545","11.8902"
"218.4000","2.4577","11.8981"
"218.6000","2.4611","11.9068"
"218.8000","2.4644","11.9151"
"219.0000","2.4677","11.9237"
"219.2000","2.4713","11.9326"
"219.4000","2.4743","11.9388"
"219.6000","2.4776","11.9460"
"219.8000","2.4813","11.9571"
"220.0000","2.4843","11.9640"
"220.2000","2.4879","11.9733"
"220.4000","2.4909","11.9798"
"220.6000","2.4942","11.9877"
"220.8000","2.4981","11.9991"
"221.0000","2.5008","12.0041"
"221.2000","2.5048","12.0153"
"221.4000","2.5075","12.0196"
"221.6000","2.5109","12.0295"
"221.8000","2.5148","12.0412"
"222.0000","2.5174","12.0453"
"222.2000","2.5214","12.0576"
"222.4000","2.5242","12.0624"
"222.6000","2.5276","12.0717"
"222.8000","2.5315","12.0837"
"223.0000","2.5340","12.0873"
"223.2000","2.5381","12.0992"
"223.4000","2.5409","12.1043"
"223.6000","2.5443","12.1123"
"223.8000","2.5480","12.1236"
"224.0000","2.5507","12.1285"
"224.2000","2.5547","12.1407"
"224.4000","2.5577","12.1467"
"224.6000","2.5609","12.1546"
"224.8000","2.5647","12.1657"
"225.0000","2.5675","12.1713"
"225.2000","2.5715","12.1822"
"225.4000","2.5744","12.1877"
"225.6000","2.5777","12.1968"
"225.8000","2.5812","12.2063"
"226.0000","2.5842","12.2121"
"226.2000","2.5878","12.2229"
"226.4000","2.5911","12.2301"
"226.6000","2.5944","12.2386"
"226.8000","2.5976","12.2470"
"227.0000","2.6011","12.2555"
"227.2000","2.6044","12.2636"
"227.4000","2.6078","12.2718"
"227.6000","2.6110","12.2799"
"227.8000","2.6144","12.2883"
"228.0000","2.6180","12.2987"
"228.2000","2.6210","12.3045"
"228.4000","2.6245","12.3138"
"228.6000","2.6277","12.3222"
"228.8000","2.6309","12.3290"
"229.0000","2.6346","12.3399"
"229.2000","2.6376","12.3457"
"229.4000","2.6412","12.3547"
"229.6000","2.6443","12.3617"
"229.8000","2.6476","12.3701"
"230.0000","2.6515","12.3821"
"230.2000","2.6541","12.3857"
"230.4000","2.6580","12.3974"
"230.6000","2.6610","12.4035"
"230.8000","2.6643","12.4114"
"231.0000","2.6682","12.4222"
"231.2000","2.6707","12.4255"
"231.4000","2.6748","12.4384"
"231.6000","2.6776","12.4441"
"231.8000","2.6808","12.4508"
"232.0000","2.6848","12.4637"
"232.2000","2.6873","12.4668"
"232.4000","2.6914","12.4790"
"232.6000","2.6943","12.4847"
"232.8000","2.6976","12.4919"
"233.0000","2.7013","12.5026"
"233.2000","2.7041","12.5072"
"233.4000","2.7080","12.5203"
"233.6000","2.7111","12.5259"
"233.8000","2.7143","12.5337"
"234.0000","2.7179","12.5437"
"234.2000","2.7209","12.5490"
"234.4000","2.7246","12.5605"
"234.6000","2.7278","12.5676"
"234.8000","2.7310","12.5748"
"235.0000","2.7345","12.5839"
"235.2000","2.7376","12.5909"
"235.4000","2.7411","12.6005"
"235.6000","2.7445","12.6088"
"235.8000","2.7477","12.6162"
"236.0000","2.7511","12.6252"
"236.2000","2.7545","12.6342"
"236.4000","2.7577","12.6419"
"236.6000","2.7612","12.6511"
"236.8000","2.7643","12.6578"
"237.0000","2.7677","12.6659"
"237.2000","2.7713","12.6757"
"237.4000","2.7743","12.6829"
"237.6000","2.7779","12.6921"
"237.8000","2.7809","12.6993"
"238.0000","2.7842","12.7073"
"238.2000","2.7881","12.7191"
"238.4000","2.7908","12.7239"
"238.6000","2.7947","12.7349"
"238.8000","2.7976","12.7400"
"239.0000","2.8009","12.7488"
"239.2000","2.8050","12.7618"
"239.4000","2.8074","12.7646"
"239.6000","2.8112","12.7757"
"239.8000","2.8143","12.7833"
"240.0000","2.8176","12.7911"
"240.2000","2.8217","12.8046"
"240.4000","2.8240","12.8065"
"240.6000","2.8281","12.8191"
"240.8000","2.8310","12.8248"
"241.0000","2.8341","12.8319"
"241.2000","2.8381","12.8454"
"241.4000","2.8407","12.8491"
"241.6000","2.8446","12.8618"
"241.8000","2.8478","12.8682"
"242.0000","2.8509","12.8753"
"242.2000","2.8548","12.8877"
"242.4000","2.8574","12.8917"
"242.6000","2.8613","12.9032"
"242.8000","2.8645","12.9103"
"243.0000","2.8676","12.9184"
"243.2000","2.8712","12.9287"
"243.4000","2.8742","12.9349"
"243.6000","2.8780","12.9468"
"243.8000","2.8811","12.9534"
"244.0000","2.8842","12.9608"
"244.2000","2.8879","12.9717"
"244.4000","2.8911","12.9788"
"244.6000","2.8944","12.9880"
"244.8000","2.8979","12.9974"
"245.0000","2.9010","13.0049"
"245.2000","2.9043","13.0131"
"245.4000","2.9079","13.0237"
"245.6000","2.9110","13.0307"
"245.8000","2.9145","13.0408"
"246.0000","2.9177","13.0484"
"246.2000","2.9210","13.0564"
"246.4000","2.9248","13.0677"
"246.6000","2.9275","13.0720"
"246.8000","2.9311","13.0828"
"247.0000","2.9344","13.0910"
"247.2000","2.9376","13.0981"
"247.4000","2.9416","13.1107"
"247.6000","2.9441","13.1140"
"247.8000","2.9479","13.1263"
"248.0000","2.9510","13.1337"
"248.2000","2.9542","13.1417"
"248.4000","2.9583","13.1536"
"248.6000","2.9607","13.1575"
"248.8000","2.9646","13.1701"
"249.0000","2.9677","13.1765"
"249.2000","2.9709","13.1850"
"249.4000","2.9749","13.1970"
"249.6000","2.9773","13.2003"
"249.8000","2.9811","13.2125"
"250.0000","2.9845","13.2201"
"250.2000","2.9875","13.2265"
"250.4000","2.9915","13.2395"
"250.6000","2.9941","13.2439"
"250.8000","2.9981","13.2556"
"251.0000","3.0011","13.2629"
"251.2000","3.0042","13.2699"
"251.4000","3.0081","13.2822"
"251.6000","3.0108","13.2873"
"251.8000","3.0147","13.2982"
"252.0000","3.0178","13.3054"
"252.2000","3.0209","13.3125"
"252.4000","3.0245","13.3220"
"252.6000","3.0276","13.3301"
"252.8000","3.0312","13.3406"
"253.0000","3.0344","13.3476"
"253.2000","3.0376","13.3552"
"253.4000","3.0410","13.3646"
"253.6000","3.0445","13.3739"
"253.8000","3.0478","13.3820"
"254.0000","3.0511","13.3900"
"254.2000","3.0544","13.3980"
"254.4000","3.0577","13.4076"
"254.6000","3.0614","13.4171"
"254.8000","3.0642","13.4237"
"255.0000","3.0678","13.4333"
"255.2000","3.0711","13.4417"
"255.4000","3.0741","13.4485"
"255.6000","3.0783","13.4609"
"255.8000","3.0808","13.4647"
"256.0000","3.0844","13.4754"
"256.2000","3.0878","13.4845"
"256.4000","3.0909","13.4907"
"256.6000","3.0949","13.5042"
"256.8000","3.0974","13.5072"
"257.0000","3.1012","13.5189"
"257.2000","3.1045","13.5270"
"257.4000","3.1075","13.5336"
"257.6000","3.1116","13.5461"
"257.8000","3.1141","13.5495"
"258.0000","3.1178","13.5609"
"258.2000","3.1211","13.5687"
"258.4000","3.1241","13.5744"
"258.6000","3.1282","13.5876"
"258.8000","3.1307","13.5911"
"259.0000","3.1345","13.6030"
"259.2000","3.1379","13.6118"
"259.4000","3.1408","13.6183"
"259.6000","3.1448","13.6300"
"259.8000","3.1476","13.6325"
"260.0000","3.1512","13.6427"
"260.2000","3.1545","13.6494"
"260.2250","3.1548","12.8287"
"260.2270","3.1549","12.2815"
"260.2290","3.1549","11.6448"
"260.2310","3.1550","10.9431"
"260.2330","3.1550","10.1970"
"260.2350","3.1551","9.4244"
"260.2370","3.1552","8.6408"
"260.2390","3.1553","7.8594"