File: DestructiveTests/Tensile/FIBERGLASS TENSILE.is_qtest_Exports/FIBERGLASS TENSILE_1.csv
Time,Displacement,Force
(s),(mm),(kN)
"0.0000","0.0000","-0.0004"
"0.3000","0.0003","0.0003"
"0.6000","0.0076","0.0000"
"0.9000","0.0125","0.0006"
"1.2000","0.0174","0.0011"
"1.5000","0.0226","0.0007"
"1.8000","0.0273","0.0009"
"2.1000","0.0326","0.0011"
"2.4000","0.0376","0.0008"
"2.7000","0.0423","0.0012"
"3.0000","0.0477","0.0013"
"3.3000","0.0523","0.0012"
"3.6000","0.0576","0.0009"
"3.9000","0.0626","0.0012"
"4.2000","0.0673","0.0015"
"4.5000","0.0728","0.0018"
"4.8000","0.0774","0.0020"
"5.1000","0.0826","0.0020"
"5.4000","0.0877","0.0020"
"5.7000","0.0923","0.0020"
"6.0000","0.0977","0.0019"
"6.3000","0.1023","0.0017"
"6.6000","0.1074","0.0024"
"6.9000","0.1128","0.0021"
"7.2000","0.1173","0.0022"
"7.5000","0.1226","0.0019"
"7.8000","0.1275","0.0021"
"8.1000","0.1323","0.0025"
"8.4000","0.1378","0.0024"
"8.7000","0.1423","0.0028"
"9.0000","0.1474","0.0029"
"9.3000","0.1526","0.0029"
"9.6000","0.1574","0.0027"
"9.9000","0.1628","0.0028"
"10.2000","0.1674","0.0030"
"10.5000","0.1724","0.0034"
"10.8000","0.1776","0.0031"
"11.1000","0.1824","0.0031"
"11.4000","0.1876","0.0029"
"11.7000","0.1924","0.0031"
"12.0000","0.1975","0.0028"
"12.3000","0.2026","0.0031"
"12.6000","0.2075","0.0033"
"12.9000","0.2125","0.0032"
"13.2000","0.2174","0.0034"
"13.5000","0.2225","0.0035"
"13.8000","0.2274","0.0036"
"14.1000","0.2328","0.0035"
"14.4000","0.2374","0.0034"
"14.7000","0.2425","0.0037"
"15.0000","0.2475","0.0035"
"15.3000","0.2522","0.0034"
"15.6000","0.2581","0.0032"
"15.9000","0.2624","0.0031"
"16.2000","0.2676","0.0033"
"16.5000","0.2725","0.0034"
"16.8000","0.2772","0.0037"
"17.1000","0.2831","0.0037"
"17.4000","0.2872","0.0035"
"17.7000","0.2927","0.0037"
"18.0000","0.2976","0.0037"
"18.3000","0.3022","0.0036"
"18.6000","0.3079","0.0039"
"18.9000","0.3123","0.0039"
"19.2000","0.3178","0.0036"
"19.5000","0.3228","0.0039"
"19.8000","0.3274","0.0041"
"20.1000","0.3326","0.0050"
"20.4000","0.3373","0.0068"
"20.7000","0.3425","0.0096"
"21.0000","0.3475","0.0140"
"21.3000","0.3526","0.0190"
"21.6000","0.3576","0.0251"
"21.9000","0.3625","0.0368"
"22.2000","0.3675","0.0515"
"22.5000","0.3723","0.0656"
"22.8000","0.3780","0.0787"
"23.1000","0.3824","0.0936"
"23.4000","0.3876","0.1142"
"23.7000","0.3924","0.1328"
"24.0000","0.3972","0.1499"
"24.3000","0.4030","0.1693"
"24.6000","0.4072","0.1828"
"24.9000","0.4127","0.1993"
"25.2000","0.4174","0.2157"
"25.5000","0.4222","0.2308"
"25.8000","0.4279","0.2513"
"26.1000","0.4322","0.2648"
"26.4000","0.4377","0.2829"
"26.7000","0.4425","0.3011"
"27.0000","0.4473","0.3149"
"27.3000","0.4529","0.3331"
"27.6000","0.4572","0.3473"
"27.9000","0.4626","0.3655"
"28.2000","0.4677","0.3840"
"28.5000","0.4724","0.3993"
"28.8000","0.4776","0.4171"
"29.1000","0.4823","0.4326"
"29.4000","0.4875","0.4522"
"29.7000","0.4925","0.4700"
"30.0000","0.4976","0.4867"
"30.3000","0.5025","0.5048"
"30.6000","0.5075","0.5225"
"30.9000","0.5125","0.5419"
"31.2000","0.5173","0.5579"
"31.5000","0.5227","0.5788"
"31.8000","0.5273","0.5961"
"32.1000","0.5327","0.6151"
"32.4000","0.5374","0.6322"
"32.7000","0.5422","0.6485"
"33.0000","0.5479","0.6722"
"33.3000","0.5523","0.6879"
"33.6000","0.5578","0.7086"
"33.9000","0.5624","0.7250"
"34.2000","0.5672","0.7428"
"34.5000","0.5730","0.7657"
"34.8000","0.5771","0.7814"
"35.1000","0.5827","0.8028"
"35.4000","0.5875","0.8214"
"35.7000","0.5924","0.8393"
"36.0000","0.5979","0.8629"
"36.3000","0.6022","0.8775"
"36.6000","0.6076","0.8982"
"36.9000","0.6125","0.9171"
"37.2000","0.6175","0.9365"
"37.5000","0.6226","0.9573"
"37.8000","0.6273","0.9753"
"38.1000","0.6325","0.9961"
"38.4000","0.6375","1.0146"
"38.7000","0.6426","1.0350"
"39.0000","0.6475","1.0540"
"39.3000","0.6527","1.0750"
"39.6000","0.6574","1.0933"
"39.9000","0.6624","1.1117"
"40.2000","0.6677","1.1344"
"40.5000","0.6723","1.1519"
"40.8000","0.6778","1.1750"
"41.1000","0.6823","1.1926"
"41.4000","0.6872","1.2103"
"41.7000","0.6928","1.2345"
"42.0000","0.6972","1.2512"
"42.3000","0.7029","1.2757"
"42.6000","0.7074","1.2917"
"42.9000","0.7122","1.3103"
"43.2000","0.7178","1.3352"
"43.5000","0.7221","1.3511"
"43.8000","0.7277","1.3742"
"44.1000","0.7324","1.3922"
"44.4000","0.7374","1.4122"
"44.7000","0.7428","1.4348"
"45.0000","0.7472","1.4500"
"45.3000","0.7526","1.4738"
"45.6000","0.7575","1.4922"
"45.9000","0.7625","1.5128"
"46.2000","0.7676","1.5331"
"46.5000","0.7723","1.5512"
"46.8000","0.7775","1.5715"
"47.1000","0.7824","1.5909"
"47.4000","0.7876","1.6110"
"47.7000","0.7924","1.6298"
"48.0000","0.7976","1.6505"
"48.3000","0.8025","1.6689"
"48.6000","0.8074","1.6859"
"48.9000","0.8126","1.7076"
"49.2000","0.8173","1.7242"
"49.5000","0.8228","1.7472"
"49.8000","0.8274","1.7612"
"50.1000","0.8323","1.7793"
"50.4000","0.8377","1.8010"
"50.7000","0.8422","1.8160"
"51.0000","0.8480","1.8380"
"51.3000","0.8524","1.8520"
"51.6000","0.8573","1.8680"
"51.9000","0.8628","1.8887"
"52.2000","0.8671","1.9024"
"52.5000","0.8729","1.9235"
"52.8000","0.8773","1.9362"
"53.1000","0.8824","1.9533"
"53.4000","0.8877","1.9710"
"53.7000","0.8922","1.9839"
"54.0000","0.8977","2.0018"
"54.3000","0.9024","2.0164"
"54.6000","0.9076","2.0324"
"54.9000","0.9127","2.0492"
"55.2000","0.9174","2.0630"
"55.5000","0.9226","2.0787"
"55.8000","0.9275","2.0939"
"56.1000","0.9326","2.1102"
"56.4000","0.9376","2.1249"
"56.7000","0.9426","2.1410"
"57.0000","0.9473","2.1542"
"57.3000","0.9524","2.1686"
"57.6000","0.9576","2.1871"
"57.9000","0.9623","2.1997"
"58.2000","0.9680","2.2199"
"58.5000","0.9723","2.2315"
"58.8000","0.9774","2.2460"
"59.1000","0.9827","2.2634"
"59.4000","0.9872","2.2762"
"59.7000","0.9930","2.2962"
"60.0000","0.9973","2.3087"
"60.3000","1.0023","2.3222"
"60.6000","1.0078","2.3416"
"60.9000","1.0121","2.3517"
"61.2000","1.0178","2.3720"
"61.5000","1.0223","2.3851"
"61.8000","1.0275","2.4003"
"62.1000","1.0328","2.4172"
"62.4000","1.0372","2.4296"
"62.7000","1.0427","2.4476"
"63.0000","1.0474","2.4607"
"63.3000","1.0526","2.4773"
"63.6000","1.0577","2.4926"
"63.9000","1.0624","2.5070"
"64.2000","1.0675","2.5230"
"64.5000","1.0724","2.5368"
"64.8000","1.0775","2.5529"
"65.1000","1.0825","2.5684"
"65.4000","1.0877","2.5848"
"65.7000","1.0924","2.5978"
"66.0000","1.0974","2.6083"
"66.3000","1.1026","2.6230"
"66.6000","1.1072","2.6354"
"66.9000","1.1130","2.6543"
"67.2000","1.1173","2.6665"
"67.5000","1.1224","2.6810"
"67.8000","1.1276","2.6984"
"68.1000","1.1322","2.7116"
"68.4000","1.1381","2.7311"
"68.7000","1.1423","2.7423"
"69.0000","1.1474","2.7576"
"69.3000","1.1527","2.7746"
"69.6000","1.1571","2.7877"
"69.9000","1.1630","2.8065"
"70.2000","1.1672","2.8177"
"70.5000","1.1726","2.8340"
"70.8000","1.1776","2.8496"
"71.1000","1.1823","2.8634"
"71.4000","1.1878","2.8816"
"71.7000","1.1923","2.8930"
"72.0000","1.1975","2.9102"
"72.3000","1.2026","2.9260"
"72.6000","1.2074","2.9396"
"72.9000","1.2125","2.9549"
"73.2000","1.2174","2.9684"
"73.5000","1.2225","2.9856"
"73.8000","1.2273","2.9995"
"74.1000","1.2328","3.0181"
"74.4000","1.2373","3.0295"
"74.7000","1.2425","3.0448"
"75.0000","1.2475","3.0611"
"75.3000","1.2523","3.0743"
"75.6000","1.2580","3.0936"
"75.9000","1.2623","3.1055"
"76.2000","1.2675","3.1211"
"76.5000","1.2725","3.1351"
"76.8000","1.2771","3.1484"
"77.1000","1.2831","3.1695"
"77.4000","1.2872","3.1785"
"77.7000","1.2925","3.1953"
"78.0000","1.2975","3.2093"
"78.3000","1.3021","3.2214"
"78.6000","1.3080","3.2412"
"78.9000","1.3122","3.2520"
"79.2000","1.3175","3.2689"
"79.5000","1.3227","3.2840"
"79.8000","1.3273","3.2960"
"80.1000","1.3328","3.3137"
"80.4000","1.3373","3.3248"
"80.7000","1.3426","3.3403"
"81.0000","1.3476","3.3423"
"81.3000","1.3525","3.3557"
"81.6000","1.3576","3.3716"
"81.9000","1.3624","3.3857"
"82.2000","1.3675","3.4020"
"82.5000","1.3724","3.4149"
"82.8000","1.3777","3.4314"
"83.1000","1.3824","3.4444"
"83.4000","1.3875","3.4592"
"83.7000","1.3925","3.4742"
"84.0000","1.3972","3.4878"
"84.3000","1.4029","3.5063"
"84.6000","1.4073","3.5169"
"84.9000","1.4126","3.5342"
"85.2000","1.4176","3.5491"
"85.5000","1.4222","3.5617"
"85.8000","1.4279","3.5817"
"86.1000","1.4322","3.5924"
"86.4000","1.4375","3.6074"
"86.7000","1.4427","3.6233"
"87.0000","1.4471","3.6340"
"87.3000","1.4529","3.6538"
"87.6000","1.4572","3.6644"
"87.9000","1.4626","3.6809"
"88.2000","1.4678","3.6962"
"88.5000","1.4723","3.7073"
"88.8000","1.4777","3.7248"
"89.1000","1.4822","3.7361"
"89.4000","1.4876","3.7535"
"89.7000","1.4926","3.7665"
"90.0000","1.4974","3.7789"
"90.3000","1.5026","3.7940"
"90.6000","1.5073","3.8060"
"90.9000","1.5125","3.8208"
"91.2000","1.5175","3.8346"
"91.5000","1.5226","3.8489"
"91.8000","1.5275","3.8619"
"92.1000","1.5325","3.8761"
"92.4000","1.5375","3.8903"
"92.7000","1.5423","3.9024"
"93.0000","1.5478","3.9202"
"93.3000","1.5523","3.9304"
"93.6000","1.5576","3.9475"
"93.9000","1.5625","3.9599"
"94.2000","1.5671","3.9722"
"94.5000","1.5730","3.9920"
"94.8000","1.5772","3.9981"
"95.1000","1.5827","4.0148"
"95.4000","1.5875","4.0289"
"95.7000","1.5921","4.0394"
"96.0000","1.5980","4.0592"
"96.3000","1.6021","4.0695"
"96.6000","1.6077","4.0862"
"96.9000","1.6126","4.1002"
"97.2000","1.6173","4.1130"
"97.5000","1.6229","4.1300"
"97.8000","1.6272","4.1411"
"98.1000","1.6326","4.1574"
"98.4000","1.6376","4.1713"
"98.7000","1.6424","4.1846"
"99.0000","1.6476","4.1998"
"99.3000","1.6524","4.2128"
"99.6000","1.6575","4.2289"
"99.9000","1.6624","4.2417"
"100.2000","1.6676","4.2564"
"100.5000","1.6724","4.2704"
"100.8000","1.6777","4.2864"
"101.1000","1.6824","4.2987"
"101.4000","1.6873","4.3133"
"101.7000","1.6929","4.3302"
"102.0000","1.6973","4.3415"
"102.3000","1.7028","4.3598"
"102.6000","1.7074","4.3712"
"102.9000","1.7122","4.3845"
"103.2000","1.7179","4.4035"
"103.5000","1.7222","4.4127"
"103.8000","1.7278","4.4320"
"104.1000","1.7324","4.4439"
"104.4000","1.7372","4.4571"
"104.7000","1.7429","4.4766"
"105.0000","1.7471","4.4857"
"105.3000","1.7527","4.5045"
"105.6000","1.7575","4.5176"
"105.9000","1.7623","4.5313"
"106.2000","1.7678","4.5491"
"106.5000","1.7722","4.5600"
"106.8000","1.7776","4.5755"
"107.1000","1.7825","4.5897"
"107.4000","1.7875","4.6045"
"107.7000","1.7926","4.6194"
"108.0000","1.7974","4.6337"
"108.3000","1.8025","4.6479"
"108.6000","1.8074","4.6626"
"108.9000","1.8128","4.6787"
"109.2000","1.8174","4.6915"
"109.5000","1.8228","4.7088"
"109.8000","1.8274","4.7205"
"110.1000","1.8323","4.7327"
"110.4000","1.8377","4.7512"
"110.7000","1.8423","4.7631"
"111.0000","1.8479","4.7801"
"111.3000","1.8523","4.7928"
"111.6000","1.8572","4.8049"
"111.9000","1.8629","4.8239"
"112.2000","1.8671","4.8332"
"112.5000","1.8729","4.8522"
"112.8000","1.8773","4.8635"
"113.1000","1.8823","4.8771"
"113.4000","1.8879","4.8955"
"113.7000","1.8921","4.9063"
"114.0000","1.8978","4.9239"
"114.3000","1.9025","4.9374"
"114.6000","1.9075","4.9516"
"114.9000","1.9128","4.9675"
"115.2000","1.9172","4.9784"
"115.5000","1.9226","4.9954"
"115.8000","1.9274","5.0089"
"116.1000","1.9325","5.0239"
"116.4000","1.9376","5.0390"
"116.7000","1.9424","5.0516"
"117.0000","1.9475","5.0672"
"117.3000","1.9524","5.0811"
"117.6000","1.9577","5.0969"
"117.9000","1.9625","5.1119"
"118.2000","1.9677","5.1262"
"118.5000","1.9724","5.1392"
"118.8000","1.9772","5.1523"
"119.1000","1.9827","5.1701"
"119.4000","1.9873","5.1828"
"119.7000","1.9929","5.2008"
"120.0000","1.9974","5.2116"
"120.3000","2.0022","5.2260"
"120.6000","2.0078","5.2444"
"120.9000","2.0121","5.2547"
"121.2000","2.0179","5.2750"
"121.5000","2.0223","5.2854"
"121.8000","2.0273","5.2997"
"122.1000","2.0328","5.3185"
"122.4000","2.0371","5.3294"
"122.7000","2.0428","5.3479"
"123.0000","2.0473","5.3592"
"123.3000","2.0525","5.3747"
"123.6000","2.0578","5.3922"
"123.9000","2.0622","5.4023"
"124.2000","2.0677","5.4198"
"124.5000","2.0723","5.4322"
"124.8000","2.0776","5.4473"
"125.1000","2.0826","5.4624"
"125.4000","2.0875","5.4765"
"125.7000","2.0925","5.4918"
"126.0000","2.0974","5.5052"
"126.3000","2.1027","5.5219"
"126.6000","2.1075","5.5345"
"126.9000","2.1128","5.5515"
"127.2000","2.1174","5.5630"
"127.5000","2.1224","5.5772"
"127.8000","2.1276","5.5948"
"128.1000","2.1322","5.6060"
"128.4000","2.1380","5.6259"
"128.7000","2.1423","5.6357"
"129.0000","2.1474","5.6500"
"129.3000","2.1528","5.6687"
"129.6000","2.1571","5.6780"
"129.9000","2.1630","5.6965"
"130.2000","2.1673","5.7077"
"130.5000","2.1724","5.7224"
"130.8000","2.1778","5.7394"
"131.1000","2.1821","5.7498"
"131.4000","2.1878","5.7681"
"131.7000","2.1923","5.7796"
"132.0000","2.1975","5.7957"
"132.3000","2.2027","5.8123"
"132.6000","2.2073","5.8233"
"132.9000","2.2126","5.8387"
"133.2000","2.2174","5.8520"
"133.5000","2.2225","5.8677"
"133.8000","2.2276","5.8827"
"134.1000","2.2325","5.8959"
"134.4000","2.2374","5.9098"
"134.7000","2.2425","5.9239"
"135.0000","2.2475","5.9377"
"135.3000","2.2524","5.9522"
"135.6000","2.2578","5.9672"
"135.9000","2.2624","5.9787"
"136.2000","2.2674","5.9937"
"136.5000","2.2725","6.0084"
"136.8000","2.2772","6.0197"
"137.1000","2.2829","6.0382"
"137.4000","2.2873","6.0490"
"137.7000","2.2924","6.0637"
"138.0000","2.2976","6.0794"
"138.3000","2.3022","6.0901"
"138.6000","2.3080","6.1100"
"138.9000","2.3123","6.1184"
"139.2000","2.3175","6.1334"
"139.5000","2.3226","6.1489"
"139.8000","2.3271","6.1591"
"140.1000","2.3327","6.1764"
"140.4000","2.3373","6.1879"
"140.7000","2.3425","6.2036"
"141.0000","2.3478","6.2187"
"141.3000","2.3523","6.2292"
"141.6000","2.3577","6.2454"
"141.9000","2.3623","6.2560"
"142.2000","2.3675","6.2723"
"142.5000","2.3725","6.2859"
"142.8000","2.3775","6.2998"
"143.1000","2.3826","6.3131"
"143.4000","2.3875","6.3249"
"143.7000","2.3925","6.3390"
"144.0000","2.3974","6.3519"
"144.3000","2.4028","6.3682"
"144.6000","2.4074","6.3783"
"144.9000","2.4126","6.3936"
"145.2000","2.4175","6.4065"
"145.5000","2.4222","6.4175"
"145.8000","2.4279","6.4369"
"146.1000","2.4323","6.4461"
"146.4000","2.4375","6.4612"
"146.7000","2.4425","6.4758"
"147.0000","2.4471","6.4869"
"147.3000","2.4530","6.5051"
"147.6000","2.4572","6.5144"
"147.9000","2.4626","6.5298"
"148.2000","2.4676","6.5444"
"148.5000","2.4722","6.5555"
"148.8000","2.4779","6.5723"
"149.1000","2.4822","6.5824"
"149.4000","2.4875","6.5973"
"149.7000","2.4927","6.6123"
"150.0000","2.4973","6.6237"
"150.3000","2.5026","6.6393"
"150.6000","2.5073","6.6506"
"150.9000","2.5125","6.6644"
"151.2000","2.5176","6.6793"
"151.5000","2.5225","6.6931"
"151.8000","2.5275","6.7056"
"152.1000","2.5325","6.7200"
"152.4000","2.5375","6.7326"
"152.7000","2.5423","6.7464"
"153.0000","2.5478","6.7631"
"153.3000","2.5524","6.7753"
"153.6000","2.5575","6.7892"
"153.9000","2.5624","6.8023"
"154.2000","2.5672","6.8141"
"154.5000","2.5730","6.8338"
"154.8000","2.5773","6.8430"
"155.1000","2.5826","6.8586"
"155.4000","2.5876","6.8735"
"155.7000","2.5921","6.8838"
"156.0000","2.5980","6.9024"
"156.3000","2.6022","6.9121"
"156.6000","2.6076","6.9274"
"156.9000","2.6126","6.9413"
"157.2000","2.6172","6.9531"
"157.5000","2.6228","6.9711"
"157.8000","2.6271","6.9793"
"158.1000","2.6326","6.9962"
"158.4000","2.6377","7.0118"
"158.7000","2.6423","7.0228"
"159.0000","2.6477","7.0399"
"159.3000","2.6523","7.0496"
"159.6000","2.6575","7.0650"
"159.9000","2.6626","7.0791"
"160.2000","2.6676","7.0930"
"160.5000","2.6726","7.1064"
"160.8000","2.6774","7.1190"
"161.1000","2.6826","7.1335"
"161.4000","2.6873","7.1450"
"161.7000","2.6928","7.1625"
"162.0000","2.6974","7.1742"
"162.3000","2.7026","7.1882"
"162.6000","2.7074","7.2008"
"162.9000","2.7122","7.2125"
"163.2000","2.7179","7.2311"
"163.5000","2.7223","7.2409"
"163.8000","2.7277","7.2570"
"164.1000","2.7325","7.2701"
"164.4000","2.7371","7.2807"
"164.7000","2.7430","7.2989"
"165.0000","2.7472","7.3090"
"165.3000","2.7527","7.3244"
"165.6000","2.7575","7.3376"
"165.9000","2.7622","7.3489"
"166.2000","2.7678","7.3666"
"166.5000","2.7721","7.3759"
"166.8000","2.7777","7.3928"
"167.1000","2.7826","7.4065"
"167.4000","2.7874","7.4183"
"167.7000","2.7927","7.4349"
"168.0000","2.7973","7.4460"
"168.3000","2.8025","7.4603"
"168.6000","2.8076","7.4750"
"168.9000","2.8126","7.4884"
"169.2000","2.8175","7.5015"
"169.5000","2.8225","7.5161"
"169.8000","2.8275","7.5294"
"170.1000","2.8324","7.5421"
"170.4000","2.8378","7.5584"
"170.7000","2.8424","7.5703"
"171.0000","2.8476","7.5848"
"171.3000","2.8524","7.5986"
"171.6000","2.8572","7.6095"
"171.9000","2.8630","7.6277"
"172.2000","2.8673","7.6379"
"172.5000","2.8728","7.6548"
"172.8000","2.8774","7.6659"
"173.1000","2.8822","7.6791"
"173.4000","2.8880","7.6967"
"173.7000","2.8922","7.7058"
"174.0000","2.8977","7.7228"
"174.3000","2.9025","7.7358"
"174.6000","2.9073","7.7474"
"174.9000","2.9129","7.7654"
"175.2000","2.9172","7.7745"
"175.5000","2.9227","7.7921"
"175.8000","2.9275","7.8045"
"176.1000","2.9324","7.8180"
"176.4000","2.9377","7.8341"
"176.7000","2.9423","7.8450"
"177.0000","2.9474","7.8589"
"177.3000","2.9525","7.8733"
"177.6000","2.9576","7.8864"
"177.9000","2.9625","7.8998"
"178.2000","2.9675","7.9143"
"178.5000","2.9725","7.9274"
"178.8000","2.9774","7.9395"
"179.1000","2.9827","7.9556"
"179.4000","2.9873","7.9666"
"179.7000","2.9927","7.9840"
"180.0000","2.9974","7.9961"
"180.3000","3.0023","8.0083"
"180.6000","3.0078","8.0253"
"180.9000","3.0122","8.0363"
"181.2000","3.0179","8.0536"
"181.5000","3.0224","8.0646"
"181.8000","3.0272","8.0780"
"182.1000","3.0328","8.0952"
"182.4000","3.0372","8.1042"
"182.7000","3.0428","8.1223"
"183.0000","3.0473","8.1347"
"183.3000","3.0523","8.1467"
"183.6000","3.0578","8.1636"
"183.9000","3.0621","8.1734"
"184.2000","3.0677","8.1907"
"184.5000","3.0725","8.2032"
"184.8000","3.0775","8.2175"
"185.1000","3.0828","8.2332"
"185.4000","3.0873","8.2437"
"185.7000","3.0924","8.2578"
"186.0000","3.0974","8.2723"
"186.3000","3.1025","8.2862"
"186.6000","3.1075","8.2998"
"186.9000","3.1125","8.3144"
"187.2000","3.1174","8.3275"
"187.5000","3.1224","8.3403"
"187.8000","3.1276","8.3562"
"188.1000","3.1323","8.3689"
"188.4000","3.1378","8.3849"
"188.7000","3.1424","8.3977"
"189.0000","3.1473","8.4101"
"189.3000","3.1528","8.4262"
"189.6000","3.1572","8.4376"
"189.9000","3.1629","8.4548"
"190.2000","3.1674","8.4659"
"190.5000","3.1722","8.4787"
"190.8000","3.1779","8.4972"
"191.1000","3.1821","8.5061"
"191.4000","3.1878","8.5243"
"191.7000","3.1924","8.5363"
"192.0000","3.1973","8.5491"
"192.3000","3.2029","8.5666"
"192.6000","3.2071","8.5756"
"192.9000","3.2128","8.5936"
"193.2000","3.2174","8.6054"
"193.5000","3.2225","8.6195"
"193.8000","3.2278","8.6358"
"194.1000","3.2322","8.6456"
"194.4000","3.2375","8.6606"
"194.7000","3.2424","8.6756"
"195.0000","3.2476","8.6896"
"195.3000","3.2526","8.7029"
"195.6000","3.2577","8.7180"
"195.9000","3.2625","8.7303"
"196.2000","3.2673","8.7431"
"196.5000","3.2726","8.7587"
"196.8000","3.2774","8.7709"
"197.1000","3.2829","8.7880"
"197.4000","3.2874","8.7996"
"197.7000","3.2923","8.8122"
"198.0000","3.2977","8.8273"
"198.3000","3.3021","8.8378"
"198.6000","3.3080","8.8554"
"198.9000","3.3124","8.8641"
"199.2000","3.3173","8.8773"
"199.5000","3.3228","8.8923"
"199.8000","3.3271","8.8999"
"200.1000","3.3329","8.9183"
"200.4000","3.3373","8.9259"
"200.7000","3.3424","8.9362"
"201.0000","3.3478","8.9475"
"201.3000","3.3522","8.9478"
"201.6000","3.3577","8.9180"
"201.8530","3.3614","8.4206"
"202.1530","3.3668","8.4067"
"202.4530","3.3719","8.4121"
"202.7530","3.3767","8.4205"
"203.0530","3.3819","8.4357"
"203.3530","3.3866","8.4486"
"203.6530","3.3919","8.4661"
"203.9530","3.3968","8.4835"
"204.2530","3.4019","8.5016"
"204.5530","3.4067","8.5181"
"204.8530","3.4117","8.5368"
"205.1530","3.4167","8.5552"
"205.4530","3.4215","8.5717"
"205.7530","3.4270","8.5941"
"206.0530","3.4315","8.6098"
"206.3530","3.4369","8.6300"
"206.6530","3.4417","8.6475"
"206.9530","3.4464","8.6640"
"207.2530","3.4523","8.6883"
"207.5530","3.4565","8.7012"
"207.8530","3.4620","8.7214"
"208.1530","3.4667","8.7369"
"208.4530","3.4714","8.7520"
"208.7530","3.4771","8.7735"
"209.0530","3.4814","8.7843"
"209.3530","3.4868","8.8039"
"209.6530","3.4918","8.8198"
"209.9530","3.4966","8.8344"
"210.2530","3.5021","8.8536"
"210.5530","3.5065","8.8651"
"210.8530","3.5120","8.8843"
"211.1530","3.5168","8.8987"
"211.4530","3.5217","8.9146"
"211.7530","3.5269","8.9301"
"212.0530","3.5316","8.9444"
"212.3530","3.5367","8.9607"
"212.6530","3.5416","8.9745"
"212.9530","3.5468","8.9902"
"213.2530","3.5517","9.0043"
"213.5530","3.5569","9.0202"
"213.8530","3.5616","9.0334"
"214.1530","3.5666","9.0476"
"214.4530","3.5719","9.0630"
"214.7530","3.5765","9.0767"
"215.0530","3.5820","9.0937"
"215.3530","3.5866","9.1053"
"215.6530","3.5914","9.1189"
"215.9530","3.5971","9.1363"
"216.2530","3.6015","9.1471"
"216.5530","3.6070","9.1646"
"216.8530","3.6116","9.1775"
"217.1530","3.6164","9.1903"
"217.4530","3.6221","9.2080"
"217.7530","3.6263","9.2181"
"218.0530","3.6319","9.2357"
"218.3530","3.6367","9.2480"
"218.6530","3.6416","9.2618"
"218.9530","3.6471","9.2792"
"219.2530","3.6515","9.2899"
"219.5530","3.6568","9.3054"
"219.8530","3.6617","9.3194"
"220.1530","3.6667","9.3334"
"220.4530","3.6718","9.3476"
"220.7530","3.6765","9.3604"
"221.0530","3.6817","9.3752"
"221.3530","3.6867","9.3885"
"221.6530","3.6918","9.4030"
"221.9530","3.6968","9.4173"
"222.2530","3.7018","9.4316"
"222.5530","3.7067","9.4447"
"222.8530","3.7115","9.4572"
"223.1530","3.7169","9.4733"
"223.4530","3.7215","9.4848"
"223.7530","3.7270","9.5014"
"224.0530","3.7315","9.5131"
"224.3530","3.7365","9.5265"
"224.6530","3.7420","9.5423"
"224.9530","3.7464","9.5522"
"225.2530","3.7521","9.5709"
"225.5530","3.7565","9.5810"
"225.8530","3.7615","9.5948"
"226.1530","3.7672","9.6117"
"226.4530","3.7713","9.6200"
"226.7530","3.7770","9.6385"
"227.0530","3.7816","9.6492"
"227.3530","3.7866","9.6631"
"227.6530","3.7921","9.6797"
"227.9530","3.7964","9.6887"
"228.2530","3.8018","9.7035"
"228.5530","3.8067","9.7176"
"228.8530","3.8118","9.7312"
"229.1530","3.8168","9.7452"
"229.4530","3.8216","9.7580"
"229.7530","3.8267","9.7720"
"230.0530","3.8316","9.7846"
"230.3530","3.8369","9.8003"
"230.6530","3.8416","9.8121"
"230.9530","3.8469","9.8268"
"231.2530","3.8517","9.8399"
"231.5530","3.8565","9.8518"
"231.8530","3.8619","9.8673"
"232.1530","3.8665","9.8792"
"232.4530","3.8722","9.8959"
"232.7530","3.8766","9.9062"
"233.0530","3.8815","9.9196"
"233.3530","3.8869","9.9348"
"233.6530","3.8914","9.9450"
"233.9530","3.8973","9.9641"
"234.2530","3.9017","9.9753"
"234.5530","3.9066","9.9868"
"234.8530","3.9120","10.0036"
"235.1530","3.9163","10.0121"
"235.4530","3.9221","10.0296"
"235.7530","3.9266","10.0407"
"236.0530","3.9316","10.0542"
"236.3530","3.9369","10.0694"
"236.6530","3.9414","10.0799"
"236.9530","3.9469","10.0957"
"237.2530","3.9516","10.1072"
"237.5530","3.9568","10.1218"
"237.8530","3.9620","10.1363"
"238.1530","3.9666","10.1477"
"238.4530","3.9718","10.1623"
"238.7530","3.9767","10.1741"
"239.0530","3.9818","10.1884"
"239.3530","3.9867","10.2008"
"239.6530","3.9919","10.2161"
"239.9530","3.9967","10.2271"
"240.2530","4.0016","10.2409"
"240.5530","4.0068","10.2552"
"240.8530","4.0115","10.2661"
"241.1530","4.0171","10.2837"
"241.4530","4.0217","10.2946"
"241.7530","4.0266","10.3067"
"242.0530","4.0316","10.3211"
"242.3530","4.0363","10.3316"
"242.6530","4.0422","10.3490"
"242.9530","4.0465","10.3592"
"243.2530","4.0515","10.3718"
"243.5530","4.0569","10.3876"
"243.8530","4.0613","10.3977"
"244.1530","4.0671","10.4154"
"244.4530","4.0715","10.4250"
"244.7530","4.0767","10.4399"
"245.0530","4.0820","10.4548"
"245.3530","4.0864","10.4645"
"245.6530","4.0918","10.4808"
"245.9530","4.0965","10.4917"
"246.2530","4.1017","10.5054"
"246.5530","4.1068","10.5201"
"246.8530","4.1117","10.5327"
"247.1530","4.1168","10.5460"
"247.4530","4.1216","10.5592"
"247.7530","4.1267","10.5720"
"248.0530","4.1317","10.5854"
"248.3530","4.1370","10.6005"
"248.6530","4.1416","10.6112"
"248.9530","4.1467","10.6249"
"249.2530","4.1517","10.6388"
"249.5530","4.1564","10.6497"
"249.8530","4.1621","10.6661"
"250.1530","4.1665","10.6769"
"250.4530","4.1717","10.6905"
"250.7530","4.1768","10.7047"
"251.0530","4.1814","10.7152"
"251.3530","4.1872","10.7340"
"251.6530","4.1915","10.7425"
"251.9530","4.1967","10.7572"
"252.2530","4.2019","10.7713"
"252.5530","4.2063","10.7812"
"252.8530","4.2121","10.8001"
"253.1530","4.2164","10.8089"
"253.4530","4.2217","10.8225"
"253.7530","4.2270","10.8382"
"254.0530","4.2315","10.8483"
"254.3530","4.2370","10.8644"
"254.6530","4.2415","10.8752"
"254.9530","4.2467","10.8895"
"255.2530","4.2519","10.9025"
"255.5530","4.2567","10.9150"
"255.8530","4.2618","10.9290"
"256.1530","4.2666","10.9418"
"256.4530","4.2717","10.9548"
"256.7530","4.2767","10.9690"
"257.0530","4.2819","10.9822"
"257.3530","4.2866","10.9939"
"257.6530","4.2917","11.0078"
"257.9530","4.2967","11.0214"
"258.2530","4.3015","11.0325"
"258.5530","4.3072","11.0492"
"258.8530","4.3116","11.0603"
"259.1530","4.3167","11.0736"
"259.4530","4.3217","11.0870"
"259.7530","4.3263","11.0984"
"260.0530","4.3322","11.1171"
"260.3530","4.3365","11.1258"
"260.6530","4.3417","11.1398"
"260.9530","4.3468","11.1542"
"261.2530","4.3513","11.1641"
"261.5530","4.3572","11.1825"
"261.8530","4.3614","11.1906"
"262.1530","4.3667","11.2060"
"262.4530","4.3719","11.2207"
"262.7530","4.3765","11.2304"
"263.0530","4.3820","11.2473"
"263.3530","4.3864","11.2573"
"263.6530","4.3918","11.2725"
"263.9530","4.3969","11.2874"
"264.2530","4.4016","11.2975"
"264.5530","4.4068","11.3111"
"264.8530","4.4115","11.3235"
"265.1530","4.4167","11.3380"
"265.4530","4.4217","11.3512"
"265.7530","4.4270","11.3660"
"266.0530","4.4317","11.3774"
"266.3530","4.4367","11.3903"
"266.6530","4.4417","11.4041"
"266.9530","4.4465","11.4163"
"267.2530","4.4522","11.4329"
"267.5530","4.4565","11.4432"
"267.8530","4.4617","11.4566"
"268.1530","4.4667","11.4691"
"268.4530","4.4713","11.4816"
"268.7530","4.4774","11.5009"
"269.0530","4.4815","11.5076"
"269.3530","4.4868","11.5234"
"269.6530","4.4918","11.5364"
"269.9530","4.4963","11.5467"
"270.2530","4.5022","11.5654"
"270.5530","4.5064","11.5734"
"270.8530","4.5118","11.5886"
"271.1530","4.5169","11.6034"
"271.4530","4.5215","11.6136"
"271.7530","4.5270","11.6290"
"272.0530","4.5315","11.6399"
"272.3530","4.5367","11.6544"
"272.6530","4.5419","11.6687"
"272.9530","4.5467","11.6806"
"273.2530","4.5519","11.6956"
"273.5530","4.5565","11.7055"
"273.8530","4.5618","11.7209"
"274.1530","4.5667","11.7330"
"274.4530","4.5720","11.7475"
"274.7530","4.5767","11.7596"
"275.0530","4.5817","11.7721"
"275.3530","4.5867","11.7854"
"275.6530","4.5915","11.7975"
"275.9530","4.5971","11.8138"
"276.2530","4.6016","11.8245"
"276.5530","4.6069","11.8395"
"276.8530","4.6118","11.8520"
"277.1530","4.6163","11.8624"
"277.4530","4.6222","11.8808"
"277.7530","4.6264","11.8888"
"278.0530","4.6319","11.9049"
"278.3530","4.6367","11.9173"
"278.6530","4.6414","11.9283"
"278.9530","4.6471","11.9447"
"279.2530","4.6514","11.9537"
"279.5530","4.6569","11.9698"
"279.8530","4.6618","11.9834"
"280.1530","4.6666","11.9945"
"280.4530","4.6720","12.0097"
"280.7530","4.6764","12.0185"
"281.0530","4.6818","12.0342"
"281.3530","4.6868","12.0474"
"281.6530","4.6917","12.0607"
"281.9530","4.6967","12.0734"
"282.2530","4.7015","12.0858"
"282.5530","4.7067","12.0997"
"282.8530","4.7117","12.1120"
"283.1530","4.7169","12.1267"
"283.4530","4.7217","12.1380"
"283.7530","4.7268","12.1522"
"284.0530","4.7317","12.1646"
"284.3530","4.7365","12.1766"
"284.6530","4.7420","12.1919"
"284.9530","4.7465","12.2027"
"285.2530","4.7520","12.2188"
"285.5530","4.7563","12.2277"
"285.8530","4.7613","12.2415"
"286.1530","4.7671","12.2576"
"286.4530","4.7714","12.2664"
"286.7530","4.7770","12.2827"
"287.0530","4.7817","12.2940"
"287.3530","4.7865","12.3063"
"287.6530","4.7921","12.3233"
"287.9530","4.7963","12.3312"
"288.2530","4.8019","12.3481"
"288.5530","4.8067","12.3596"
"288.8530","4.8116","12.3718"
"289.1530","4.8169","12.3867"
"289.4530","4.8214","12.3967"
"289.7530","4.8268","12.4118"
"290.0530","4.8317","12.4231"
"290.3530","4.8367","12.4369"
"290.6530","4.8418","12.4506"
"290.9530","4.8466","12.4624"
"291.2530","4.8518","12.4760"
"291.5530","4.8567","12.4884"
"291.8530","4.8618","12.5020"
"292.1530","4.8666","12.5141"
"292.4530","4.8719","12.5283"
"292.7530","4.8767","12.5403"
"293.0530","4.8815","12.5517"
"293.3530","4.8868","12.5670"
"293.6530","4.8914","12.5774"
"293.9530","4.8971","12.5934"
"294.2530","4.9017","12.6047"
"294.5530","4.9064","12.6162"
"294.8530","4.9121","12.6319"
"295.1530","4.9164","12.6415"
"295.4530","4.9222","12.6583"
"295.7530","4.9267","12.6650"
"296.0530","4.9315","12.6764"
"296.3530","4.9370","12.6920"
"296.6530","4.9413","12.7013"
"296.9530","4.9470","12.7175"
"297.2530","4.9517","12.7297"
"297.5530","4.9566","12.7409"
"297.8530","4.9620","12.7564"
"298.1530","4.9664","12.7656"
"298.4530","4.9718","12.7812"
"298.7530","4.9767","12.7930"
"299.0530","4.9818","12.8070"
"299.3530","4.9868","12.8191"
"299.6530","4.9916","12.8304"
"299.9530","4.9967","12.8450"
"300.2530","5.0016","12.8572"
"300.5530","5.0069","12.8706"
"300.8530","5.0116","12.8819"
"301.1530","5.0169","12.8971"
"301.4530","5.0217","12.9069"
"301.7530","5.0265","12.9196"
"302.0530","5.0320","12.9347"
"302.3530","5.0364","12.9453"
"302.6530","5.0421","12.9612"
"302.9530","5.0465","12.9713"
"303.2530","5.0515","12.9828"
"303.5530","5.0569","12.9987"
"303.8530","5.0613","13.0071"
"304.1530","5.0672","13.0259"
"304.4530","5.0715","13.0343"
"304.7530","5.0765","13.0446"
"305.0530","5.0820","13.0589"
"305.3530","5.0863","13.0676"
"305.6530","5.0920","13.0842"
"305.9530","5.0967","13.0952"
"306.2530","5.1017","13.1078"
"306.5530","5.1070","13.1225"
"306.8530","5.1114","13.1316"
"307.1530","5.1168","13.1460"
"307.4530","5.1216","13.1580"
"307.7530","5.1268","13.1716"
"308.0530","5.1318","13.1829"
"308.1610","5.1335","12.4590"
"308.1650","5.1336","11.3246"
"308.1680","5.1336","10.3027"
"308.1710","5.1338","9.1984"
"308.1740","5.1339","8.0635"
"308.1750","5.1340","7.6863"