File: DestructiveTests/Tensile/FLAX TENSILE.is_qtest_Exports/FLAX TENSILE_6.csv
Time,Displacement,Force
(s),(mm),(kN)
"0.0000","0.0000","0.0859"
"0.1000","0.0001","0.0861"
"0.2000","0.0009","0.0882"
"0.3000","0.0009","0.0888"
"0.4000","0.0013","0.0892"
"0.5000","0.0044","0.0978"
"0.6000","0.0079","0.1056"
"0.7000","0.0088","0.1070"
"0.8000","0.0105","0.1113"
"0.9000","0.0123","0.1155"
"1.0000","0.0146","0.1216"
"1.1000","0.0160","0.1247"
"1.2000","0.0173","0.1285"
"1.3000","0.0191","0.1334"
"1.4000","0.0208","0.1382"
"1.5000","0.0229","0.1436"
"1.6000","0.0243","0.1469"
"1.7000","0.0257","0.1508"
"1.8000","0.0274","0.1554"
"1.9000","0.0292","0.1600"
"2.0000","0.0313","0.1655"
"2.1000","0.0326","0.1687"
"2.2000","0.0340","0.1726"
"2.3000","0.0358","0.1780"
"2.4000","0.0375","0.1826"
"2.5000","0.0395","0.1880"
"2.6000","0.0409","0.1913"
"2.7000","0.0424","0.1951"
"2.8000","0.0442","0.1999"
"2.9000","0.0459","0.2041"
"3.0000","0.0478","0.2086"
"3.1000","0.0492","0.2122"
"3.2000","0.0507","0.2157"
"3.3000","0.0525","0.2199"
"3.4000","0.0543","0.2241"
"3.5000","0.0561","0.2273"
"3.6000","0.0574","0.2296"
"3.7000","0.0591","0.2326"
"3.8000","0.0609","0.2366"
"3.9000","0.0626","0.2399"
"4.0000","0.0643","0.2441"
"4.1000","0.0658","0.2477"
"4.2000","0.0675","0.2511"
"4.3000","0.0692","0.2551"
"4.4000","0.0709","0.2597"
"4.5000","0.0726","0.2632"
"4.6000","0.0741","0.2672"
"4.7000","0.0758","0.2713"
"4.8000","0.0777","0.2751"
"4.9000","0.0793","0.2787"
"5.0000","0.0809","0.2821"
"5.1000","0.0824","0.2857"
"5.2000","0.0842","0.2908"
"5.3000","0.0860","0.2951"
"5.4000","0.0876","0.2987"
"5.5000","0.0892","0.3023"
"5.6000","0.0908","0.3055"
"5.7000","0.0926","0.3100"
"5.8000","0.0943","0.3140"
"5.9000","0.0959","0.3177"
"6.0000","0.0975","0.3217"
"6.1000","0.0990","0.3245"
"6.2000","0.1010","0.3292"
"6.3000","0.1027","0.3336"
"6.4000","0.1041","0.3369"
"6.5000","0.1058","0.3416"
"6.6000","0.1074","0.3455"
"6.7000","0.1093","0.3505"
"6.8000","0.1110","0.3536"
"6.9000","0.1125","0.3568"
"7.0000","0.1141","0.3603"
"7.1000","0.1158","0.3642"
"7.2000","0.1177","0.3686"
"7.3000","0.1193","0.3723"
"7.4000","0.1208","0.3756"
"7.5000","0.1225","0.3798"
"7.6000","0.1242","0.3840"
"7.7000","0.1261","0.3891"
"7.8000","0.1276","0.3921"
"7.9000","0.1291","0.3956"
"8.0000","0.1308","0.3998"
"8.1000","0.1325","0.4041"
"8.2000","0.1344","0.4093"
"8.3000","0.1359","0.4125"
"8.4000","0.1374","0.4163"
"8.5000","0.1392","0.4208"
"8.6000","0.1409","0.4249"
"8.7000","0.1428","0.4292"
"8.8000","0.1442","0.4319"
"8.9000","0.1457","0.4357"
"9.0000","0.1475","0.4402"
"9.1000","0.1493","0.4446"
"9.2000","0.1511","0.4484"
"9.3000","0.1524","0.4512"
"9.4000","0.1540","0.4551"
"9.5000","0.1558","0.4597"
"9.6000","0.1576","0.4644"
"9.7000","0.1594","0.4685"
"9.8000","0.1607","0.4714"
"9.9000","0.1624","0.4761"
"10.0000","0.1641","0.4806"
"10.1000","0.1661","0.4856"
"10.2000","0.1677","0.4893"
"10.3000","0.1691","0.4924"
"10.4000","0.1707","0.4963"
"10.5000","0.1725","0.5017"
"10.6000","0.1744","0.5069"
"10.7000","0.1761","0.5102"
"10.8000","0.1773","0.5122"
"10.9000","0.1789","0.5166"
"11.0000","0.1808","0.5215"
"11.1000","0.1829","0.5265"
"11.2000","0.1843","0.5293"
"11.3000","0.1857","0.5329"
"11.4000","0.1873","0.5378"
"11.5000","0.1892","0.5428"
"11.6000","0.1913","0.5480"
"11.7000","0.1927","0.5512"
"11.8000","0.1940","0.5539"
"11.9000","0.1956","0.5581"
"12.0000","0.1975","0.5627"
"12.1000","0.1995","0.5683"
"12.2000","0.2010","0.5715"
"12.3000","0.2022","0.5739"
"12.4000","0.2039","0.5790"
"12.5000","0.2058","0.5847"
"12.6000","0.2079","0.5902"
"12.7000","0.2093","0.5929"
"12.8000","0.2106","0.5954"
"12.9000","0.2122","0.5990"
"13.0000","0.2142","0.6048"
"13.1000","0.2162","0.6104"
"13.2000","0.2177","0.6135"
"13.3000","0.2190","0.6165"
"13.4000","0.2206","0.6205"
"13.5000","0.2226","0.6272"
"13.6000","0.2245","0.6327"
"13.7000","0.2259","0.6358"
"13.8000","0.2274","0.6393"
"13.9000","0.2290","0.6430"
"14.0000","0.2309","0.6484"
"14.1000","0.2328","0.6537"
"14.2000","0.2343","0.6570"
"14.3000","0.2358","0.6609"
"14.4000","0.2373","0.6649"
"14.5000","0.2393","0.6708"
"14.6000","0.2411","0.6757"
"14.7000","0.2427","0.6796"
"14.8000","0.2441","0.6830"
"14.9000","0.2455","0.6862"
"15.0000","0.2477","0.6931"
"15.1000","0.2492","0.6970"
"15.2000","0.2509","0.7018"
"15.3000","0.2525","0.7060"
"15.4000","0.2540","0.7092"
"15.5000","0.2559","0.7150"
"15.6000","0.2576","0.7190"
"15.7000","0.2591","0.7230"
"15.8000","0.2609","0.7279"
"15.9000","0.2624","0.7319"
"16.0000","0.2642","0.7374"
"16.1000","0.2659","0.7414"
"16.2000","0.2675","0.7458"
"16.3000","0.2693","0.7500"
"16.4000","0.2708","0.7536"
"16.5000","0.2725","0.7581"
"16.6000","0.2742","0.7621"
"16.7000","0.2759","0.7662"
"16.8000","0.2777","0.7721"
"16.9000","0.2793","0.7763"
"17.0000","0.2807","0.7799"
"17.1000","0.2824","0.7843"
"17.2000","0.2841","0.7890"
"17.3000","0.2861","0.7946"
"17.4000","0.2877","0.7983"
"17.5000","0.2891","0.8017"
"17.6000","0.2908","0.8063"
"17.7000","0.2924","0.8106"
"17.8000","0.2944","0.8171"
"17.9000","0.2960","0.8216"
"18.0000","0.2973","0.8250"
"18.1000","0.2990","0.8300"
"18.2000","0.3007","0.8342"
"18.3000","0.3029","0.8408"
"18.4000","0.3043","0.8441"
"18.5000","0.3056","0.8466"
"18.6000","0.3074","0.8517"
"18.7000","0.3090","0.8560"
"18.8000","0.3113","0.8634"
"18.9000","0.3129","0.8673"
"19.0000","0.3139","0.8688"
"19.1000","0.3156","0.8746"
"19.2000","0.3174","0.8800"
"19.3000","0.3195","0.8857"
"19.4000","0.3213","0.8900"
"19.5000","0.3223","0.8918"
"19.6000","0.3240","0.8978"
"19.7000","0.3258","0.9037"
"19.8000","0.3279","0.9096"
"19.9000","0.3296","0.9131"
"20.0000","0.3305","0.9146"
"20.1000","0.3322","0.9198"
"20.2000","0.3341","0.9255"
"20.3000","0.3363","0.9320"
"20.4000","0.3379","0.9357"
"20.5000","0.3389","0.9372"
"20.6000","0.3405","0.9424"
"20.7000","0.3424","0.9477"
"20.8000","0.3446","0.9542"
"20.9000","0.3462","0.9582"
"21.0000","0.3473","0.9600"
"21.1000","0.3488","0.9647"
"21.2000","0.3508","0.9709"
"21.3000","0.3529","0.9772"
"21.4000","0.3545","0.9810"
"21.5000","0.3556","0.9829"
"21.6000","0.3572","0.9880"
"21.7000","0.3592","0.9946"
"21.8000","0.3613","1.0001"
"21.9000","0.3628","1.0033"
"22.0000","0.3640","1.0060"
"22.1000","0.3655","1.0106"
"22.2000","0.3675","1.0177"
"22.3000","0.3696","1.0245"
"22.4000","0.3712","1.0282"
"22.5000","0.3724","1.0306"
"22.6000","0.3738","1.0344"
"22.7000","0.3759","1.0413"
"22.8000","0.3778","1.0466"
"22.9000","0.3793","1.0496"
"23.0000","0.3808","1.0538"
"23.1000","0.3822","1.0578"
"23.2000","0.3842","1.0647"
"23.3000","0.3862","1.0701"
"23.4000","0.3876","1.0731"
"23.5000","0.3892","1.0769"
"23.6000","0.3906","1.0801"
"23.7000","0.3925","1.0864"
"23.8000","0.3944","1.0919"
"23.9000","0.3959","1.0961"
"24.0000","0.3976","1.1011"
"24.1000","0.3990","1.1046"
"24.2000","0.4008","1.1097"
"24.3000","0.4026","1.1155"
"24.4000","0.4042","1.1202"
"24.5000","0.4060","1.1249"
"24.6000","0.4074","1.1282"
"24.7000","0.4092","1.1336"
"24.8000","0.4110","1.1391"
"24.9000","0.4125","1.1427"
"25.0000","0.4143","1.1478"
"25.1000","0.4158","1.1520"
"25.2000","0.4175","1.1565"
"25.3000","0.4193","1.1619"
"25.4000","0.4208","1.1658"
"25.5000","0.4227","1.1716"
"25.6000","0.4243","1.1763"
"25.7000","0.4258","1.1800"
"25.8000","0.4274","1.1851"
"25.9000","0.4292","1.1905"
"26.0000","0.4310","1.1955"
"26.1000","0.4328","1.2003"
"26.2000","0.4340","1.2029"
"26.3000","0.4357","1.2086"
"26.4000","0.4374","1.2134"
"26.5000","0.4394","1.2198"
"26.6000","0.4412","1.2250"
"26.7000","0.4423","1.2272"
"26.8000","0.4440","1.2318"
"26.9000","0.4457","1.2368"
"27.0000","0.4478","1.2426"
"27.1000","0.4495","1.2466"
"27.2000","0.4506","1.2491"
"27.3000","0.4523","1.2552"
"27.4000","0.4541","1.2609"
"27.5000","0.4562","1.2672"
"27.6000","0.4579","1.2713"
"27.7000","0.4589","1.2729"
"27.8000","0.4606","1.2785"
"27.9000","0.4624","1.2843"
"28.0000","0.4645","1.2901"
"28.1000","0.4663","1.2955"
"28.2000","0.4673","1.2971"
"28.3000","0.4689","1.3028"
"28.4000","0.4708","1.3089"
"28.5000","0.4729","1.3158"
"28.6000","0.4746","1.3193"
"28.7000","0.4756","1.3210"
"28.8000","0.4772","1.3253"
"28.9000","0.4790","1.3306"
"29.0000","0.4813","1.3378"
"29.1000","0.4829","1.3426"
"29.2000","0.4840","1.3442"
"29.3000","0.4855","1.3483"
"29.4000","0.4873","1.3548"
"29.5000","0.4895","1.3616"
"29.6000","0.4912","1.3661"
"29.7000","0.4923","1.3679"
"29.8000","0.4938","1.3723"
"29.9000","0.4957","1.3786"
"30.0000","0.4979","1.3857"
"30.1000","0.4995","1.3893"
"30.2000","0.5007","1.3915"
"30.3000","0.5022","1.3957"
"30.4000","0.5041","1.4015"
"30.5000","0.5062","1.4084"
"30.6000","0.5078","1.4124"
"30.7000","0.5091","1.4153"
"30.8000","0.5105","1.4195"
"30.9000","0.5124","1.4253"
"31.0000","0.5145","1.4317"
"31.1000","0.5161","1.4359"
"31.2000","0.5175","1.4391"
"31.3000","0.5189","1.4429"
"31.4000","0.5208","1.4492"
"31.5000","0.5229","1.4560"
"31.6000","0.5243","1.4595"
"31.7000","0.5259","1.4633"
"31.8000","0.5273","1.4671"
"31.9000","0.5292","1.4727"
"32.0000","0.5311","1.4784"
"32.1000","0.5326","1.4817"
"32.2000","0.5342","1.4852"
"32.3000","0.5357","1.4891"
"32.4000","0.5374","1.4945"
"32.5000","0.5393","1.5018"
"32.6000","0.5409","1.5057"
"32.7000","0.5425","1.5098"
"32.8000","0.5441","1.5135"
"32.9000","0.5459","1.5187"
"33.0000","0.5476","1.5239"
"33.1000","0.5492","1.5276"
"33.2000","0.5509","1.5314"
"33.3000","0.5525","1.5357"
"33.4000","0.5542","1.5412"
"33.5000","0.5559","1.5467"
"33.6000","0.5575","1.5505"
"33.7000","0.5593","1.5555"
"33.8000","0.5609","1.5593"
"33.9000","0.5625","1.5627"
"34.0000","0.5642","1.5675"
"34.1000","0.5658","1.5723"
"34.2000","0.5676","1.5778"
"34.3000","0.5694","1.5823"
"34.4000","0.5708","1.5859"
"34.5000","0.5724","1.5907"
"34.6000","0.5741","1.5954"
"34.7000","0.5760","1.6006"
"34.8000","0.5778","1.6059"
"34.9000","0.5791","1.6078"
"35.0000","0.5807","1.6122"
"35.1000","0.5824","1.6175"
"35.2000","0.5843","1.6229"
"35.3000","0.5862","1.6282"
"35.4000","0.5873","1.6300"
"35.5000","0.5890","1.6339"
"35.6000","0.5907","1.6389"
"35.7000","0.5927","1.6446"
"35.8000","0.5947","1.6504"
"35.9000","0.5957","1.6515"
"36.0000","0.5973","1.6558"
"36.1000","0.5991","1.6613"
"36.2000","0.6010","1.6672"
"36.3000","0.6030","1.6729"
"36.4000","0.6040","1.6740"
"36.5000","0.6055","1.6774"
"36.6000","0.6073","1.6821"
"36.7000","0.6094","1.6884"
"36.8000","0.6114","1.6940"
"36.9000","0.6124","1.6949"
"37.0000","0.6139","1.6994"
"37.1000","0.6157","1.7041"
"37.2000","0.6179","1.7104"
"37.3000","0.6197","1.7147"
"37.4000","0.6207","1.7155"
"37.5000","0.6222","1.7193"
"37.6000","0.6240","1.7239"
"37.7000","0.6261","1.7293"
"37.8000","0.6280","1.7345"
"37.9000","0.6291","1.7357"
"38.0000","0.6305","1.7391"
"38.1000","0.6323","1.7441"
"38.2000","0.6344","1.7502"
"38.3000","0.6363","1.7546"
"38.4000","0.6374","1.7560"
"38.5000","0.6388","1.7591"
"38.6000","0.6407","1.7642"
"38.7000","0.6428","1.7703"
"38.8000","0.6446","1.7750"
"38.9000","0.6458","1.7767"
"39.0000","0.6472","1.7797"
"39.1000","0.6490","1.7851"
"39.2000","0.6511","1.7917"
"39.3000","0.6529","1.7954"
"39.4000","0.6542","1.7976"
"39.5000","0.6555","1.8001"
"39.6000","0.6573","1.8043"
"39.7000","0.6594","1.8106"
"39.8000","0.6612","1.8150"
"39.9000","0.6625","1.8170"
"40.0000","0.6640","1.8207"
"40.1000","0.6658","1.8255"
"40.2000","0.6677","1.8310"
"40.3000","0.6694","1.8347"
"40.4000","0.6710","1.8386"
"40.5000","0.6723","1.8408"
"40.6000","0.6741","1.8457"
"40.7000","0.6760","1.8503"
"40.8000","0.6777","1.8539"
"40.9000","0.6792","1.8574"
"41.0000","0.6807","1.8612"
"41.1000","0.6824","1.8657"
"41.2000","0.6843","1.8702"
"41.3000","0.6859","1.8731"
"41.4000","0.6876","1.8770"
"41.5000","0.6890","1.8797"
"41.6000","0.6908","1.8841"
"41.7000","0.6927","1.8886"
"41.8000","0.6941","1.8912"
"41.9000","0.6959","1.8962"
"42.0000","0.6975","1.8991"
"42.1000","0.6991","1.9027"
"42.2000","0.7009","1.9067"
"42.3000","0.7025","1.9103"
"42.4000","0.7043","1.9141"
"42.5000","0.7059","1.9179"
"42.6000","0.7074","1.9212"
"42.7000","0.7092","1.9251"
"42.8000","0.7108","1.9293"
"42.9000","0.7127","1.9340"
"43.0000","0.7144","1.9381"
"43.1000","0.7158","1.9402"
"43.2000","0.7175","1.9445"
"43.3000","0.7191","1.9479"
"43.4000","0.7210","1.9523"
"43.5000","0.7228","1.9566"
"43.6000","0.7241","1.9590"
"43.7000","0.7257","1.9619"
"43.8000","0.7275","1.9658"
"43.9000","0.7293","1.9701"
"44.0000","0.7312","1.9756"
"44.1000","0.7324","1.9767"
"44.2000","0.7340","1.9804"
"44.3000","0.7357","1.9849"
"44.4000","0.7376","1.9896"
"44.5000","0.7397","1.9948"
"44.6000","0.7408","1.9956"
"44.7000","0.7423","1.9985"
"44.8000","0.7440","2.0028"
"44.9000","0.7460","2.0077"
"45.0000","0.7480","2.0128"
"45.1000","0.7489","2.0125"
"45.2000","0.7506","2.0163"
"45.3000","0.7524","2.0211"
"45.4000","0.7543","2.0260"
"45.5000","0.7564","2.0314"
"45.6000","0.7574","2.0315"
"45.7000","0.7589","2.0344"
"45.8000","0.7607","2.0379"
"45.9000","0.7627","2.0429"
"46.0000","0.7648","2.0477"
"46.1000","0.7658","2.0480"
"46.2000","0.7672","2.0506"
"46.3000","0.7689","2.0551"
"46.4000","0.7711","2.0619"
"46.5000","0.7730","2.0654"
"46.6000","0.7740","2.0664"
"46.7000","0.7755","2.0686"
"46.8000","0.7773","2.0726"
"46.9000","0.7793","2.0787"
"47.0000","0.7813","2.0832"
"47.1000","0.7824","2.0839"
"47.2000","0.7838","2.0859"
"47.3000","0.7856","2.0903"
"47.4000","0.7878","2.0962"
"47.5000","0.7896","2.1003"
"47.6000","0.7908","2.1009"
"47.7000","0.7922","2.1033"
"47.8000","0.7940","2.1075"
"47.9000","0.7961","2.1127"
"48.0000","0.7979","2.1162"
"48.1000","0.7992","2.1176"
"48.2000","0.8005","2.1198"
"48.3000","0.8023","2.1242"
"48.4000","0.8045","2.1304"
"48.5000","0.8062","2.1338"
"48.6000","0.8076","2.1354"
"48.7000","0.8088","2.1369"
"48.8000","0.8106","2.1410"
"48.9000","0.8129","2.1473"
"49.0000","0.8144","2.1489"
"49.1000","0.8159","2.1514"
"49.2000","0.8173","2.1536"
"49.3000","0.8191","2.1577"
"49.4000","0.8211","2.1620"
"49.5000","0.8228","2.1652"
"49.6000","0.8243","2.1677"
"49.7000","0.8256","2.1686"
"49.8000","0.8275","2.1735"
"49.9000","0.8292","2.1774"
"50.0000","0.8310","2.1811"
"50.1000","0.8326","2.1843"
"50.2000","0.8340","2.1864"
"50.3000","0.8358","2.1901"
"50.4000","0.8377","2.1947"
"50.5000","0.8393","2.1972"
"50.6000","0.8409","2.1998"
"50.7000","0.8424","2.2023"
"50.8000","0.8440","2.2045"
"50.9000","0.8459","2.2086"
"51.0000","0.8475","2.2110"
"51.1000","0.8493","2.2154"
"51.2000","0.8509","2.2192"
"51.3000","0.8524","2.2212"
"51.4000","0.8542","2.2255"
"51.5000","0.8558","2.2284"
"51.6000","0.8574","2.2311"
"51.7000","0.8595","2.2358"
"51.8000","0.8608","2.2372"
"51.9000","0.8624","2.2402"
"52.0000","0.8642","2.2435"
"52.1000","0.8660","2.2474"
"52.2000","0.8678","2.2512"
"52.3000","0.8692","2.2527"
"52.4000","0.8706","2.2552"
"52.5000","0.8725","2.2587"
"52.6000","0.8743","2.2622"
"52.7000","0.8762","2.2663"
"52.8000","0.8774","2.2680"
"52.9000","0.8789","2.2702"
"53.0000","0.8806","2.2743"
"53.1000","0.8825","2.2783"
"53.2000","0.8848","2.2834"
"53.3000","0.8857","2.2831"
"53.4000","0.8873","2.2855"
"53.5000","0.8891","2.2888"
"53.6000","0.8908","2.2922"
"53.7000","0.8932","2.2984"
"53.8000","0.8941","2.2976"
"53.9000","0.8955","2.3001"
"54.0000","0.8974","2.3042"
"54.1000","0.8993","2.3073"
"54.2000","0.9014","2.3123"
"54.3000","0.9024","2.3120"
"54.4000","0.9038","2.3143"
"54.5000","0.9056","2.3185"
"54.6000","0.9077","2.3240"
"54.7000","0.9100","2.3293"
"54.8000","0.9108","2.3281"
"54.9000","0.9121","2.3295"
"55.0000","0.9139","2.3333"
"55.1000","0.9161","2.3394"
"55.2000","0.9182","2.3444"
"55.3000","0.9191","2.3436"
"55.4000","0.9205","2.3456"
"55.5000","0.9224","2.3496"
"55.6000","0.9243","2.3535"
"55.7000","0.9263","2.3576"
"55.8000","0.9274","2.3576"
"55.9000","0.9287","2.3590"
"56.0000","0.9305","2.3633"
"56.1000","0.9326","2.3681"
"56.2000","0.9349","2.3738"
"56.3000","0.9359","2.3733"
"56.4000","0.9371","2.3749"
"56.5000","0.9389","2.3788"
"56.6000","0.9410","2.3836"
"56.7000","0.9429","2.3874"
"56.8000","0.9444","2.3893"
"56.9000","0.9455","2.3899"
"57.0000","0.9473","2.3934"
"57.1000","0.9493","2.3980"
"57.2000","0.9512","2.4014"
"57.3000","0.9526","2.4034"
"57.4000","0.9539","2.4045"
"57.5000","0.9556","2.4082"
"57.6000","0.9578","2.4140"
"57.7000","0.9595","2.4173"
"57.8000","0.9609","2.4189"
"57.9000","0.9623","2.4208"
"58.0000","0.9639","2.4235"
"58.1000","0.9661","2.4287"
"58.2000","0.9678","2.4313"
"58.3000","0.9693","2.4334"
"58.4000","0.9707","2.4350"
"58.5000","0.9724","2.4382"
"58.6000","0.9742","2.4416"
"58.7000","0.9759","2.4450"
"58.8000","0.9777","2.4480"
"58.9000","0.9790","2.4490"
"59.0000","0.9807","2.4524"
"59.1000","0.9827","2.4573"
"59.2000","0.9843","2.4600"
"59.3000","0.9859","2.4628"
"59.4000","0.9876","2.4667"
"59.5000","0.9891","2.4687"
"59.6000","0.9909","2.4724"
"59.7000","0.9925","2.4753"
"59.8000","0.9943","2.4790"
"59.9000","0.9960","2.4815"
"60.0000","0.9974","2.4830"
"60.1000","0.9991","2.4864"
"60.2000","1.0008","2.4893"
"60.3000","1.0026","2.4929"
"60.4000","1.0045","2.4970"
"60.5000","1.0058","2.4982"
"60.6000","1.0075","2.5011"
"60.7000","1.0092","2.5046"
"60.8000","1.0108","2.5080"
"60.9000","1.0129","2.5131"
"61.0000","1.0142","2.5139"
"61.1000","1.0157","2.5164"
"61.2000","1.0175","2.5202"
"61.3000","1.0192","2.5226"
"61.4000","1.0213","2.5274"
"61.5000","1.0225","2.5276"
"61.6000","1.0239","2.5300"
"61.7000","1.0256","2.5338"
"61.8000","1.0275","2.5386"
"61.9000","1.0298","2.5449"
"62.0000","1.0309","2.5451"
"62.1000","1.0323","2.5466"
"62.2000","1.0341","2.5505"
"62.3000","1.0357","2.5534"
"62.4000","1.0383","2.5614"
"62.5000","1.0392","2.5602"
"62.6000","1.0405","2.5618"
"62.7000","1.0423","2.5660"
"62.8000","1.0442","2.5701"
"62.9000","1.0464","2.5747"
"63.0000","1.0475","2.5752"
"63.1000","1.0488","2.5765"
"63.2000","1.0507","2.5812"
"63.3000","1.0526","2.5858"
"63.4000","1.0548","2.5912"
"63.5000","1.0559","2.5912"
"63.6000","1.0572","2.5926"
"63.7000","1.0589","2.5963"
"63.8000","1.0610","2.6015"
"63.9000","1.0631","2.6064"
"64.0000","1.0642","2.6069"
"64.1000","1.0655","2.6086"
"64.2000","1.0673","2.6125"
"64.3000","1.0692","2.6177"
"64.4000","1.0713","2.6226"
"64.5000","1.0725","2.6233"
"64.6000","1.0738","2.6246"
"64.7000","1.0756","2.6281"
"64.8000","1.0777","2.6334"
"64.9000","1.0796","2.6383"
"65.0000","1.0809","2.6395"
"65.1000","1.0822","2.6405"
"65.2000","1.0839","2.6437"
"65.3000","1.0860","2.6489"
"65.4000","1.0880","2.6537"
"65.5000","1.0893","2.6546"
"65.6000","1.0906","2.6564"
"65.7000","1.0923","2.6600"
"65.8000","1.0945","2.6663"
"65.9000","1.0960","2.6687"
"66.0000","1.0977","2.6714"
"66.1000","1.0990","2.6726"
"66.2000","1.1006","2.6756"
"66.3000","1.1028","2.6805"
"66.4000","1.1045","2.6837"
"66.5000","1.1059","2.6853"
"66.6000","1.1074","2.6872"
"66.7000","1.1090","2.6899"
"66.8000","1.1110","2.6952"
"66.9000","1.1127","2.6984"
"67.0000","1.1143","2.7012"
"67.1000","1.1157","2.7037"
"67.2000","1.1174","2.7069"
"67.3000","1.1193","2.7108"
"67.4000","1.1209","2.7138"
"67.5000","1.1225","2.7165"
"67.6000","1.1242","2.7196"
"67.7000","1.1257","2.7217"
"67.8000","1.1276","2.7261"
"67.9000","1.1293","2.7290"
"68.0000","1.1308","2.7318"
"68.1000","1.1326","2.7356"
"68.2000","1.1341","2.7381"
"68.3000","1.1358","2.7418"
"68.4000","1.1376","2.7457"
"68.5000","1.1393","2.7491"
"68.6000","1.1410","2.7525"
"68.7000","1.1425","2.7547"
"68.8000","1.1441","2.7580"
"68.9000","1.1458","2.7611"
"69.0000","1.1476","2.7641"
"69.1000","1.1495","2.7682"
"69.2000","1.1509","2.7702"
"69.3000","1.1524","2.7730"
"69.4000","1.1542","2.7767"
"69.5000","1.1558","2.7798"
"69.6000","1.1578","2.7850"
"69.7000","1.1593","2.7867"
"69.8000","1.1607","2.7890"
"69.9000","1.1624","2.7924"
"70.0000","1.1642","2.7962"
"70.1000","1.1662","2.8015"
"70.2000","1.1676","2.8038"
"70.3000","1.1689","2.8052"
"70.4000","1.1707","2.8091"
"70.5000","1.1724","2.8125"
"70.6000","1.1746","2.8184"
"70.7000","1.1760","2.8200"
"70.8000","1.1772","2.8213"
"70.9000","1.1790","2.8257"
"71.0000","1.1808","2.8299"
"71.1000","1.1830","2.8352"
"71.2000","1.1843","2.8365"
"71.3000","1.1855","2.8372"
"71.4000","1.1873","2.8409"
"71.5000","1.1891","2.8443"
"71.6000","1.1914","2.8508"
"71.7000","1.1927","2.8519"
"71.8000","1.1938","2.8526"
"71.9000","1.1956","2.8569"
"72.0000","1.1976","2.8619"
"72.1000","1.1998","2.8678"
"72.2000","1.2011","2.8685"
"72.3000","1.2021","2.8692"
"72.4000","1.2039","2.8729"
"72.5000","1.2059","2.8776"
"72.6000","1.2080","2.8833"
"72.7000","1.2094","2.8850"
"72.8000","1.2106","2.8857"
"72.9000","1.2122","2.8892"
"73.0000","1.2142","2.8938"
"73.1000","1.2164","2.9002"
"73.2000","1.2177","2.9014"
"73.3000","1.2189","2.9029"
"73.4000","1.2205","2.9062"
"73.5000","1.2226","2.9115"
"73.6000","1.2247","2.9163"
"73.7000","1.2260","2.9178"
"73.8000","1.2272","2.9192"
"73.9000","1.2288","2.9224"
"74.0000","1.2309","2.9274"
"74.1000","1.2329","2.9323"
"74.2000","1.2342","2.9340"
"74.3000","1.2356","2.9353"
"74.4000","1.2372","2.9390"
"74.5000","1.2393","2.9449"
"74.6000","1.2413","2.9501"
"74.7000","1.2426","2.9511"
"74.8000","1.2441","2.9541"
"74.9000","1.2456","2.9565"
"75.0000","1.2477","2.9620"
"75.1000","1.2495","2.9661"
"75.2000","1.2509","2.9679"
"75.3000","1.2524","2.9702"
"75.4000","1.2539","2.9721"
"75.5000","1.2559","2.9776"
"75.6000","1.2577","2.9817"
"75.7000","1.2592","2.9843"
"75.8000","1.2608","2.9873"
"75.9000","1.2623","2.9894"
"76.0000","1.2643","2.9942"
"76.1000","1.2660","2.9979"
"76.2000","1.2675","3.0003"
"76.3000","1.2692","3.0034"
"76.4000","1.2707","3.0059"
"76.5000","1.2725","3.0093"
"76.6000","1.2743","3.0134"
"76.7000","1.2758","3.0165"
"76.8000","1.2776","3.0207"
"76.9000","1.2791","3.0240"
"77.0000","1.2808","3.0275"
"77.1000","1.2825","3.0308"
"77.2000","1.2842","3.0336"
"77.3000","1.2860","3.0377"
"77.4000","1.2876","3.0404"
"77.5000","1.2891","3.0436"
"77.6000","1.2909","3.0476"
"77.7000","1.2925","3.0511"
"77.8000","1.2944","3.0555"
"77.9000","1.2959","3.0578"
"78.0000","1.2974","3.0602"
"78.1000","1.2991","3.0638"
"78.2000","1.3008","3.0675"
"78.3000","1.3027","3.0721"
"78.4000","1.3044","3.0746"
"78.5000","1.3057","3.0767"
"78.6000","1.3074","3.0797"
"78.7000","1.3091","3.0833"
"78.8000","1.3112","3.0883"
"78.9000","1.3127","3.0912"
"79.0000","1.3139","3.0926"
"79.1000","1.3157","3.0976"
"79.2000","1.3175","3.1019"
"79.3000","1.3195","3.1067"
"79.4000","1.3211","3.1093"
"79.5000","1.3223","3.1101"
"79.6000","1.3240","3.1136"
"79.7000","1.3257","3.1179"
"79.8000","1.3279","3.1240"
"79.9000","1.3294","3.1263"
"80.0000","1.3305","3.1270"
"80.1000","1.3323","3.1304"
"80.2000","1.3341","3.1346"
"80.3000","1.3364","3.1414"
"80.4000","1.3378","3.1433"
"80.5000","1.3389","3.1443"
"80.6000","1.3406","3.1488"
"80.7000","1.3425","3.1529"
"80.8000","1.3446","3.1581"
"80.9000","1.3462","3.1606"
"81.0000","1.3472","3.1606"
"81.1000","1.3489","3.1649"
"81.2000","1.3508","3.1688"
"81.3000","1.3530","3.1741"
"81.4000","1.3544","3.1763"
"81.5000","1.3555","3.1769"
"81.6000","1.3572","3.1809"
"81.7000","1.3591","3.1861"
"81.8000","1.3613","3.1922"
"81.9000","1.3627","3.1940"
"82.0000","1.3639","3.1950"
"82.1000","1.3655","3.1983"
"82.2000","1.3675","3.2029"
"82.3000","1.3695","3.2080"
"82.4000","1.3711","3.2107"
"82.5000","1.3723","3.2125"
"82.6000","1.3739","3.2154"
"82.7000","1.3758","3.2208"
"82.8000","1.3779","3.2263"
"82.9000","1.3794","3.2284"
"83.0000","1.3807","3.2302"
"83.1000","1.3822","3.2333"
"83.2000","1.3842","3.2385"
"83.3000","1.3863","3.2441"
"83.4000","1.3877","3.2453"
"83.5000","1.3891","3.2477"
"83.6000","1.3906","3.2499"
"83.7000","1.3926","3.2554"
"83.8000","1.3945","3.2601"
"83.9000","1.3959","3.2616"
"84.0000","1.3975","3.2649"
"84.1000","1.3990","3.2675"
"84.2000","1.4009","3.2720"
"84.3000","1.4028","3.2759"
"84.4000","1.4042","3.2785"
"84.5000","1.4058","3.2819"
"84.6000","1.4073","3.2848"
"84.7000","1.4093","3.2898"
"84.8000","1.4110","3.2933"
"84.9000","1.4126","3.2965"
"85.0000","1.4142","3.2992"
"85.1000","1.4156","3.3020"
"85.2000","1.4175","3.3069"
"85.3000","1.4193","3.3110"
"85.4000","1.4209","3.3139"
"85.5000","1.4226","3.3171"
"85.6000","1.4241","3.3197"
"85.7000","1.4258","3.3230"
"85.8000","1.4276","3.3268"
"85.9000","1.4292","3.3298"
"86.0000","1.4309","3.3340"
"86.1000","1.4325","3.3369"
"86.2000","1.4342","3.3414"
"86.3000","1.4360","3.3447"
"86.4000","1.4375","3.3473"
"86.5000","1.4394","3.3516"
"86.6000","1.4409","3.3550"
"86.7000","1.4424","3.3575"
"86.8000","1.4442","3.3618"
"86.9000","1.4458","3.3650"
"87.0000","1.4478","3.3701"
"87.1000","1.4494","3.3729"
"87.2000","1.4506","3.3746"
"87.3000","1.4525","3.3794"
"87.4000","1.4541","3.3831"
"87.5000","1.4560","3.3884"
"87.6000","1.4578","3.3920"
"87.7000","1.4590","3.3902"
"87.8000","1.4608","3.3939"
"87.9000","1.4624","3.3969"
"88.0000","1.4645","3.4030"
"88.1000","1.4662","3.4068"
"88.2000","1.4672","3.4074"
"88.3000","1.4690","3.4115"
"88.4000","1.4707","3.4147"
"88.5000","1.4730","3.4213"
"88.6000","1.4745","3.4241"
"88.7000","1.4755","3.4247"
"88.8000","1.4773","3.4296"
"88.9000","1.4790","3.4330"
"89.0000","1.4813","3.4398"
"89.1000","1.4829","3.4430"
"89.2000","1.4839","3.4428"
"89.3000","1.4857","3.4473"
"89.4000","1.4875","3.4510"
"89.5000","1.4896","3.4563"
"89.6000","1.4913","3.4600"
"89.7000","1.4923","3.4601"
"89.8000","1.4938","3.4633"
"89.9000","1.4958","3.4691"
"90.0000","1.4981","3.4749"
"90.1000","1.4995","3.4773"
"90.2000","1.5005","3.4772"
"90.3000","1.5023","3.4815"
"90.4000","1.5040","3.4853"
"90.5000","1.5063","3.4910"
"90.6000","1.5080","3.4947"
"90.7000","1.5089","3.4943"
"90.8000","1.5106","3.4985"
"90.9000","1.5124","3.5037"
"91.0000","1.5146","3.5096"
"91.1000","1.5162","3.5130"
"91.2000","1.5173","3.5134"
"91.3000","1.5188","3.5160"
"91.4000","1.5209","3.5213"
"91.5000","1.5229","3.5264"
"91.6000","1.5244","3.5298"
"91.7000","1.5256","3.5309"
"91.8000","1.5271","3.5341"
"91.9000","1.5292","3.5393"
"92.0000","1.5313","3.5450"
"92.1000","1.5328","3.5472"
"92.2000","1.5341","3.5490"
"92.3000","1.5355","3.5515"
"92.4000","1.5376","3.5570"
"92.5000","1.5395","3.5621"
"92.6000","1.5410","3.5617"
"92.7000","1.5425","3.5646"
"92.8000","1.5439","3.5674"
"92.9000","1.5458","3.5722"
"93.0000","1.5479","3.5781"
"93.1000","1.5492","3.5802"
"93.2000","1.5508","3.5839"
"93.3000","1.5524","3.5873"
"93.4000","1.5539","3.5897"
"93.5000","1.5561","3.5959"
"93.6000","1.5577","3.5994"
"93.7000","1.5591","3.6018"
"93.8000","1.5607","3.6055"
"93.9000","1.5626","3.6100"
"94.0000","1.5643","3.6131"
"94.1000","1.5659","3.6160"
"94.2000","1.5676","3.6202"
"94.3000","1.5690","3.6232"
"94.4000","1.5709","3.6282"
"94.5000","1.5726","3.6323"
"94.6000","1.5741","3.6350"
"94.7000","1.5759","3.6386"
"94.8000","1.5775","3.6420"
"94.9000","1.5792","3.6452"
"95.0000","1.5809","3.6489"
"95.1000","1.5824","3.6510"
"95.2000","1.5844","3.6563"
"95.3000","1.5860","3.6590"
"95.4000","1.5874","3.6616"
"95.5000","1.5892","3.6659"
"95.6000","1.5909","3.6699"
"95.7000","1.5927","3.6744"
"95.8000","1.5945","3.6790"
"95.9000","1.5957","3.6800"
"96.0000","1.5974","3.6832"
"96.1000","1.5991","3.6868"
"96.2000","1.6010","3.6921"
"96.3000","1.6029","3.6975"
"96.4000","1.6040","3.6981"
"96.5000","1.6057","3.7020"
"96.6000","1.6075","3.7061"
"96.7000","1.6094","3.7108"
"96.8000","1.6112","3.7152"
"96.9000","1.6123","3.7164"
"97.0000","1.6140","3.7199"
"97.1000","1.6155","3.7228"
"97.2000","1.6180","3.7304"
"97.3000","1.6196","3.7329"
"97.4000","1.6205","3.7331"
"97.5000","1.6223","3.7375"
"97.6000","1.6240","3.7417"
"97.7000","1.6262","3.7486"
"97.8000","1.6280","3.7519"
"97.9000","1.6290","3.7522"
"98.0000","1.6305","3.7550"
"98.1000","1.6324","3.7598"
"98.2000","1.6345","3.7666"
"98.3000","1.6363","3.7712"
"98.4000","1.6373","3.7713"
"98.5000","1.6388","3.7742"
"98.6000","1.6407","3.7787"
"98.7000","1.6429","3.7850"
"98.8000","1.6446","3.7886"
"98.9000","1.6456","3.7891"
"99.0000","1.6472","3.7928"
"99.1000","1.6491","3.7971"
"99.2000","1.6511","3.8018"
"99.3000","1.6530","3.8057"
"99.4000","1.6540","3.8057"
"99.5000","1.6554","3.8073"
"99.6000","1.6574","3.8118"
"99.7000","1.6596","3.8186"
"99.8000","1.6612","3.8220"
"99.9000","1.6623","3.8227"
"100.0000","1.6638","3.8260"
"100.1000","1.6657","3.8307"
"100.2000","1.6679","3.8368"
"100.3000","1.6695","3.8398"
"100.4000","1.6708","3.8418"
"100.5000","1.6722","3.8440"
"100.6000","1.6741","3.8487"
"100.7000","1.6762","3.8539"
"100.7180","1.6766","3.5500"
"100.7210","1.6766","3.2860"
"100.7240","1.6767","2.9798"
"100.7270","1.6768","2.6514"
"100.7300","1.6769","2.3165"
"100.7310","1.6769","2.2057"