File: DestructiveTests/Tensile/FLAX TENSILE.is_qtest_Exports/FLAX TENSILE_2.csv
Time,Displacement,Force
(s),(mm),(kN)
"0.0000","0.0000","-0.0031"
"0.3000","0.0008","-0.0008"
"0.6000","0.0062","0.0204"
"0.9000","0.0113","0.0421"
"1.2000","0.0168","0.0630"
"1.5000","0.0213","0.0787"
"1.8000","0.0264","0.0951"
"2.1000","0.0317","0.1124"
"2.4000","0.0363","0.1268"
"2.7000","0.0417","0.1425"
"3.0000","0.0464","0.1548"
"3.3000","0.0513","0.1671"
"3.6000","0.0569","0.1817"
"3.9000","0.0613","0.1906"
"4.2000","0.0665","0.2037"
"4.5000","0.0716","0.2141"
"4.8000","0.0763","0.2225"
"5.1000","0.0819","0.2348"
"5.4000","0.0863","0.2422"
"5.7000","0.0915","0.2526"
"6.0000","0.0967","0.2618"
"6.3000","0.1014","0.2689"
"6.6000","0.1067","0.2785"
"6.9000","0.1113","0.2850"
"7.2000","0.1165","0.2927"
"7.5000","0.1215","0.3000"
"7.8000","0.1265","0.3053"
"8.1000","0.1315","0.3111"
"8.4000","0.1365","0.3172"
"8.7000","0.1416","0.3237"
"9.0000","0.1465","0.3285"
"9.3000","0.1517","0.3342"
"9.6000","0.1564","0.3371"
"9.9000","0.1617","0.3421"
"10.2000","0.1664","0.3451"
"10.5000","0.1713","0.3476"
"10.8000","0.1768","0.3535"
"11.1000","0.1812","0.3545"
"11.4000","0.1867","0.3597"
"11.7000","0.1915","0.3628"
"12.0000","0.1962","0.3641"
"12.3000","0.2019","0.3707"
"12.6000","0.2062","0.3706"
"12.9000","0.2117","0.3753"
"13.2000","0.2165","0.3775"
"13.5000","0.2213","0.3790"
"13.8000","0.2269","0.3839"
"14.1000","0.2312","0.3840"
"14.4000","0.2366","0.3876"
"14.7000","0.2416","0.3898"
"15.0000","0.2464","0.3913"
"15.3000","0.2517","0.3902"
"15.6000","0.2562","0.3903"
"15.9000","0.2615","0.3929"
"16.2000","0.2665","0.3960"
"16.5000","0.2715","0.3983"
"16.8000","0.2765","0.4007"
"17.1000","0.2814","0.4029"
"17.4000","0.2866","0.4059"
"17.7000","0.2914","0.4076"
"18.0000","0.2968","0.4110"
"18.3000","0.3014","0.4123"
"18.6000","0.3066","0.4153"
"18.9000","0.3114","0.4170"
"19.2000","0.3162","0.4187"
"19.5000","0.3219","0.4240"
"19.8000","0.3263","0.4240"
"20.1000","0.3318","0.4276"
"20.4000","0.3365","0.4291"
"20.7000","0.3412","0.4302"
"21.0000","0.3469","0.4360"
"21.3000","0.3512","0.4353"
"21.6000","0.3568","0.4399"
"21.9000","0.3615","0.4412"
"22.2000","0.3662","0.4424"
"22.5000","0.3719","0.4477"
"22.8000","0.3762","0.4478"
"23.1000","0.3818","0.4517"
"23.4000","0.3866","0.4544"
"23.7000","0.3914","0.4555"
"24.0000","0.3967","0.4600"
"24.3000","0.4012","0.4610"
"24.6000","0.4066","0.4650"
"24.9000","0.4115","0.4674"
"25.2000","0.4166","0.4693"
"25.5000","0.4216","0.4722"
"25.8000","0.4265","0.4740"
"26.1000","0.4314","0.4762"
"26.4000","0.4364","0.4788"
"26.7000","0.4416","0.4821"
"27.0000","0.4464","0.4838"
"27.3000","0.4518","0.4873"
"27.6000","0.4564","0.4884"
"27.9000","0.4612","0.4901"
"28.2000","0.4668","0.4953"
"28.5000","0.4713","0.4956"
"28.8000","0.4769","0.4996"
"29.1000","0.4814","0.5005"
"29.4000","0.4862","0.5014"
"29.7000","0.4919","0.5066"
"30.0000","0.4962","0.5063"
"30.3000","0.5019","0.5113"
"30.6000","0.5064","0.5122"
"30.9000","0.5113","0.5138"
"31.2000","0.5167","0.5196"
"31.5000","0.5211","0.5193"
"31.8000","0.5268","0.5240"
"32.1000","0.5316","0.5254"
"32.4000","0.5364","0.5268"
"32.7000","0.5417","0.5297"
"33.0000","0.5462","0.5303"
"33.3000","0.5516","0.5332"
"33.6000","0.5565","0.5359"
"33.9000","0.5616","0.5384"
"34.2000","0.5666","0.5408"
"34.5000","0.5716","0.5428"
"34.8000","0.5765","0.5446"
"35.1000","0.5814","0.5467"
"35.4000","0.5866","0.5501"
"35.7000","0.5914","0.5518"
"36.0000","0.5969","0.5559"
"36.3000","0.6014","0.5568"
"36.6000","0.6063","0.5580"
"36.9000","0.6117","0.5636"
"37.2000","0.6161","0.5638"
"37.5000","0.6220","0.5687"
"37.8000","0.6264","0.5693"
"38.1000","0.6313","0.5702"
"38.4000","0.6367","0.5743"
"38.7000","0.6411","0.5739"
"39.0000","0.6470","0.5784"
"39.3000","0.6513","0.5784"
"39.6000","0.6564","0.5801"
"39.9000","0.6618","0.5845"
"40.2000","0.6662","0.5836"
"40.5000","0.6718","0.5871"
"40.8000","0.6764","0.5885"
"41.1000","0.6815","0.5901"
"41.4000","0.6867","0.5938"
"41.7000","0.6913","0.5946"
"42.0000","0.6965","0.5980"
"42.3000","0.7014","0.6006"
"42.6000","0.7065","0.6034"
"42.9000","0.7115","0.6065"
"43.2000","0.7166","0.6089"
"43.5000","0.7215","0.6109"
"43.8000","0.7264","0.6129"
"44.1000","0.7315","0.6166"
"44.4000","0.7363","0.6180"
"44.7000","0.7420","0.6224"
"45.0000","0.7463","0.6229"
"45.3000","0.7514","0.6253"
"45.6000","0.7565","0.6283"
"45.9000","0.7612","0.6292"
"46.2000","0.7670","0.6346"
"46.5000","0.7713","0.6346"
"46.8000","0.7764","0.6370"
"47.1000","0.7817","0.6412"
"47.4000","0.7862","0.6416"
"47.7000","0.7919","0.6470"
"48.0000","0.7962","0.6471"
"48.3000","0.8014","0.6500"
"48.6000","0.8067","0.6545"
"48.9000","0.8112","0.6543"
"49.2000","0.8168","0.6595"
"49.5000","0.8214","0.6609"
"49.8000","0.8265","0.6628"
"50.1000","0.8317","0.6672"
"50.4000","0.8364","0.6678"
"50.7000","0.8416","0.6710"
"51.0000","0.8464","0.6725"
"51.3000","0.8515","0.6754"
"51.6000","0.8565","0.6780"
"51.9000","0.8617","0.6811"
"52.2000","0.8665","0.6828"
"52.5000","0.8714","0.6851"
"52.8000","0.8765","0.6885"
"53.1000","0.8813","0.6902"
"53.4000","0.8868","0.6940"
"53.7000","0.8914","0.6947"
"54.0000","0.8964","0.6963"
"54.3000","0.9015","0.7004"
"54.6000","0.9062","0.7013"
"54.9000","0.9121","0.7076"
"55.2000","0.9164","0.7077"
"55.5000","0.9215","0.7099"
"55.8000","0.9266","0.7133"
"56.1000","0.9311","0.7137"
"56.4000","0.9370","0.7195"
"56.7000","0.9413","0.7198"
"57.0000","0.9465","0.7226"
"57.3000","0.9517","0.7266"
"57.6000","0.9562","0.7264"
"57.9000","0.9619","0.7309"
"58.2000","0.9663","0.7315"
"58.5000","0.9715","0.7338"
"58.8000","0.9767","0.7373"
"59.1000","0.9813","0.7383"
"59.4000","0.9865","0.7414"
"59.7000","0.9913","0.7428"
"60.0000","0.9966","0.7460"
"60.3000","1.0016","0.7485"
"60.6000","1.0067","0.7511"
"60.9000","1.0115","0.7537"
"61.2000","1.0165","0.7555"
"61.5000","1.0216","0.7591"
"61.8000","1.0264","0.7607"
"62.1000","1.0319","0.7651"
"62.4000","1.0364","0.7656"
"62.7000","1.0415","0.7675"
"63.0000","1.0465","0.7699"
"63.3000","1.0511","0.7706"
"63.6000","1.0571","0.7773"
"63.9000","1.0613","0.7760"
"64.2000","1.0666","0.7793"
"64.5000","1.0717","0.7823"
"64.8000","1.0761","0.7823"
"65.1000","1.0821","0.7884"
"65.4000","1.0863","0.7878"
"65.7000","1.0916","0.7907"
"66.0000","1.0967","0.7941"
"66.3000","1.1012","0.7939"
"66.6000","1.1069","0.7999"
"66.9000","1.1113","0.7999"
"67.2000","1.1165","0.8032"
"67.5000","1.1217","0.8076"
"67.8000","1.1263","0.8080"
"68.1000","1.1316","0.8118"
"68.4000","1.1363","0.8132"
"68.7000","1.1415","0.8162"
"69.0000","1.1465","0.8185"
"69.3000","1.1517","0.8213"
"69.6000","1.1565","0.8231"
"69.9000","1.1615","0.8252"
"70.2000","1.1665","0.8279"
"70.5000","1.1713","0.8296"
"70.8000","1.1769","0.8344"
"71.1000","1.1813","0.8347"
"71.4000","1.1865","0.8370"
"71.7000","1.1915","0.8405"
"72.0000","1.1961","0.8412"
"72.3000","1.2021","0.8476"
"72.6000","1.2063","0.8473"
"72.9000","1.2116","0.8500"
"73.2000","1.2166","0.8542"
"73.5000","1.2212","0.8542"
"73.8000","1.2271","0.8603"
"74.1000","1.2312","0.8594"
"74.4000","1.2366","0.8631"
"74.7000","1.2415","0.8655"
"75.0000","1.2462","0.8667"
"75.3000","1.2519","0.8719"
"75.6000","1.2563","0.8720"
"75.9000","1.2616","0.8757"
"76.2000","1.2666","0.8792"
"76.5000","1.2715","0.8814"
"76.8000","1.2767","0.8847"
"77.1000","1.2812","0.8858"
"77.4000","1.2865","0.8894"
"77.7000","1.2915","0.8917"
"78.0000","1.2967","0.8948"
"78.3000","1.3015","0.8960"
"78.6000","1.3065","0.8989"
"78.9000","1.3115","0.9018"
"79.2000","1.3164","0.9037"
"79.5000","1.3220","0.9084"
"79.8000","1.3263","0.9082"
"80.1000","1.3317","0.9121"
"80.4000","1.3364","0.9137"
"80.7000","1.3412","0.9152"
"81.0000","1.3470","0.9216"
"81.3000","1.3513","0.9213"
"81.6000","1.3568","0.9254"
"81.9000","1.3615","0.9270"
"82.2000","1.3662","0.9280"
"82.5000","1.3719","0.9333"
"82.8000","1.3762","0.9333"
"83.1000","1.3817","0.9373"
"83.4000","1.3865","0.9400"
"83.7000","1.3914","0.9417"
"84.0000","1.3969","0.9468"
"84.3000","1.4012","0.9472"
"84.6000","1.4066","0.9509"
"84.9000","1.4116","0.9540"
"85.2000","1.4165","0.9564"
"85.5000","1.4216","0.9603"
"85.8000","1.4264","0.9614"
"86.1000","1.4315","0.9647"
"86.4000","1.4364","0.9667"
"86.7000","1.4417","0.9707"
"87.0000","1.4465","0.9727"
"87.3000","1.4516","0.9766"
"87.6000","1.4564","0.9784"
"87.9000","1.4613","0.9804"
"88.2000","1.4667","0.9847"
"88.5000","1.4713","0.9852"
"88.8000","1.4768","0.9899"
"89.1000","1.4814","0.9915"
"89.4000","1.4862","0.9935"
"89.7000","1.4920","1.0011"
"90.0000","1.4962","1.0010"
"90.3000","1.5018","1.0062"
"90.6000","1.5064","1.0074"
"90.9000","1.5111","1.0090"
"91.2000","1.5169","1.0153"
"91.5000","1.5211","1.0153"
"91.8000","1.5268","1.0207"
"92.1000","1.5314","1.0228"
"92.4000","1.5363","1.0248"
"92.7000","1.5419","1.0301"
"93.0000","1.5462","1.0298"
"93.3000","1.5516","1.0342"
"93.6000","1.5565","1.0376"
"93.9000","1.5615","1.0402"
"94.2000","1.5668","1.0454"
"94.5000","1.5713","1.0463"
"94.8000","1.5764","1.0500"
"95.1000","1.5815","1.0528"
"95.4000","1.5866","1.0555"
"95.7000","1.5915","1.0579"
"96.0000","1.5966","1.0604"
"96.3000","1.6014","1.0624"
"96.6000","1.6064","1.0650"
"96.9000","1.6117","1.0696"
"97.2000","1.6163","1.0708"
"97.5000","1.6218","1.0759"
"97.8000","1.6263","1.0776"
"98.1000","1.6312","1.0797"
"98.4000","1.6370","1.0862"
"98.7000","1.6413","1.0862"
"99.0000","1.6468","1.0914"
"99.3000","1.6513","1.0925"
"99.6000","1.6562","1.0944"
"99.9000","1.6619","1.1008"
"100.2000","1.6661","1.1007"
"100.5000","1.6718","1.1055"
"100.8000","1.6764","1.1074"
"101.1000","1.6813","1.1091"
"101.4000","1.6869","1.1141"
"101.7000","1.6912","1.1138"
"102.0000","1.6966","1.1178"
"102.3000","1.7015","1.1212"
"102.6000","1.7065","1.1235"
"102.9000","1.7118","1.1273"
"103.2000","1.7163","1.1281"
"103.5000","1.7215","1.1315"
"103.8000","1.7264","1.1339"
"104.1000","1.7316","1.1372"
"104.4000","1.7366","1.1395"
"104.7000","1.7415","1.1425"
"105.0000","1.7464","1.1444"
"105.3000","1.7513","1.1463"
"105.6000","1.7567","1.1505"
"105.9000","1.7613","1.1516"
"106.2000","1.7668","1.1560"
"106.5000","1.7713","1.1570"
"106.8000","1.7762","1.1588"
"107.1000","1.7818","1.1653"
"107.4000","1.7862","1.1652"
"107.7000","1.7920","1.1706"
"108.0000","1.7964","1.1713"
"108.3000","1.8013","1.1737"
"108.6000","1.8069","1.1798"
"108.9000","1.8111","1.1794"
"109.2000","1.8168","1.1847"
"109.5000","1.8214","1.1863"
"109.8000","1.8264","1.1884"
"110.1000","1.8319","1.1940"
"110.4000","1.8362","1.1931"
"110.7000","1.8417","1.1980"
"111.0000","1.8465","1.2004"
"111.3000","1.8516","1.2032"
"111.6000","1.8567","1.2063"
"111.9000","1.8613","1.2075"
"112.2000","1.8666","1.2112"
"112.5000","1.8715","1.2133"
"112.8000","1.8766","1.2161"
"113.1000","1.8815","1.2186"
"113.4000","1.8867","1.2216"
"113.7000","1.8915","1.2233"
"114.0000","1.8964","1.2245"
"114.3000","1.9016","1.2278"
"114.6000","1.9063","1.2288"
"114.9000","1.9119","1.2334"
"115.2000","1.9163","1.2340"
"115.5000","1.9214","1.2358"
"115.8000","1.9267","1.2401"
"116.1000","1.9312","1.2406"
"116.4000","1.9370","1.2462"
"116.7000","1.9413","1.2457"
"117.0000","1.9464","1.2477"
"117.3000","1.9517","1.2515"
"117.6000","1.9561","1.2504"
"117.9000","1.9618","1.2554"
"118.2000","1.9663","1.2560"
"118.5000","1.9714","1.2582"
"118.8000","1.9768","1.2626"
"119.1000","1.9813","1.2623"
"119.4000","1.9867","1.2667"
"119.7000","1.9914","1.2675"
"120.0000","1.9965","1.2696"
"120.3000","2.0017","1.2720"
"120.6000","2.0064","1.2729"
"120.9000","2.0115","1.2754"
"121.2000","2.0164","1.2776"
"121.5000","2.0215","1.2804"
"121.8000","2.0264","1.2825"
"122.1000","2.0317","1.2862"
"122.4000","2.0365","1.2877"
"122.7000","2.0415","1.2898"
"123.0000","2.0465","1.2927"
"123.3000","2.0513","1.2936"
"123.6000","2.0570","1.2985"
"123.9000","2.0614","1.2980"
"124.2000","2.0664","1.2996"
"124.5000","2.0716","1.3029"
"124.8000","2.0761","1.3024"
"125.1000","2.0820","1.3078"
"125.4000","2.0863","1.3067"
"125.7000","2.0913","1.3075"
"126.0000","2.0967","1.3122"
"126.3000","2.1011","1.3108"
"126.6000","2.1070","1.3168"
"126.9000","2.1113","1.3155"
"127.2000","2.1165","1.3181"
"127.5000","2.1218","1.3213"
"127.8000","2.1263","1.3202"
"128.1000","2.1317","1.3242"
"128.4000","2.1362","1.3233"
"128.7000","2.1415","1.3258"
"129.0000","2.1467","1.3281"
"129.3000","2.1511","1.3272"
"129.6000","2.1564","1.3294"
"129.9000","2.1614","1.3312"
"130.2000","2.1665","1.3334"
"130.5000","2.1715","1.3347"
"130.8000","2.1767","1.3372"
"131.1000","2.1814","1.3373"
"131.4000","2.1865","1.3386"
"131.7000","2.1916","1.3410"
"132.0000","2.1963","1.3404"
"132.3000","2.2020","1.3449"
"132.6000","2.2063","1.3430"
"132.9000","2.2114","1.3435"
"133.2000","2.2166","1.3455"
"133.5000","2.2212","1.3442"
"133.8000","2.2271","1.3486"
"134.1000","2.2313","1.3459"
"134.4000","2.2365","1.3472"
"134.7000","2.2416","1.3481"
"135.0000","2.2461","1.3462"
"135.3000","2.2520","1.3508"
"135.6000","2.2562","1.3479"
"135.9000","2.2615","1.3493"
"136.2000","2.2668","1.3509"
"136.5000","2.2712","1.3488"
"136.8000","2.2768","1.3516"
"137.1000","2.2813","1.3503"
"137.4000","2.2866","1.3514"
"137.7000","2.2917","1.3521"
"138.0000","2.2964","1.3508"
"138.3000","2.3015","1.3516"
"138.6000","2.3064","1.3510"
"138.9000","2.3115","1.3514"
"139.2000","2.3166","1.3521"
"139.5000","2.3218","1.3523"
"139.8000","2.3264","1.3503"
"140.1000","2.3315","1.3504"
"140.4000","2.3365","1.3503"
"140.7000","2.3413","1.3485"
"141.0000","2.3470","1.3517"
"141.3000","2.3514","1.3488"
"141.6000","2.3565","1.3484"
"141.9000","2.3615","1.3485"
"142.2000","2.3661","1.3463"
"142.5000","2.3721","1.3491"
"142.8000","2.3763","1.3445"
"143.1000","2.3816","1.3441"
"143.4000","2.3865","1.3427"
"143.7000","2.3911","1.3389"
"144.0000","2.3970","1.3418"
"144.3000","2.4012","1.3368"
"144.6000","2.4067","1.3374"
"144.9000","2.4117","1.3364"
"145.2000","2.4163","1.3334"
"145.5000","2.4218","1.3352"
"145.8000","2.4262","1.3314"
"146.1000","2.4315","1.3331"
"146.4000","2.4366","1.3335"
"146.7000","2.4415","1.3334"
"147.0000","2.4466","1.3347"
"147.3000","2.4514","1.3340"
"147.6000","2.4565","1.3356"
"147.9000","2.4615","1.3368"
"148.2000","2.4667","1.3389"
"148.5000","2.4715","1.3385"
"148.8000","2.4766","1.3404"
"149.1000","2.4814","1.3406"
"149.4000","2.4863","1.3410"
"149.7000","2.4918","1.3448"
"150.0000","2.4963","1.3436"
"150.3000","2.5017","1.3460"
"150.6000","2.5065","1.3461"
"150.9000","2.5112","1.3456"
"151.2000","2.5170","1.3499"
"151.5000","2.5212","1.3473"
"151.8000","2.5267","1.3500"
"152.1000","2.5315","1.3501"
"152.4000","2.5362","1.3488"
"152.7000","2.5419","1.3535"
"153.0000","2.5461","1.3503"
"153.3000","2.5516","1.3529"
"153.6000","2.5567","1.3533"
"153.9000","2.5614","1.3517"
"154.2000","2.5668","1.3539"
"154.5000","2.5712","1.3510"
"154.8000","2.5766","1.3522"
"155.1000","2.5816","1.3517"
"155.4000","2.5865","1.3505"
"155.7000","2.5916","1.3502"
"156.0000","2.5964","1.3490"
"156.3000","2.6015","1.3486"
"156.6000","2.6065","1.3470"
"156.9000","2.6117","1.3471"
"157.2000","2.6164","1.3449"
"157.5000","2.6216","1.3440"
"157.8000","2.6264","1.3415"
"158.1000","2.6313","1.3388"
"158.4000","2.6368","1.3404"
"158.7000","2.6412","1.3359"
"159.0000","2.6467","1.3363"
"159.3000","2.6514","1.3329"
"159.6000","2.6562","1.3298"
"159.9000","2.6619","1.3323"
"160.2000","2.6662","1.3270"
"160.5000","2.6718","1.3288"
"160.8000","2.6764","1.3260"
"161.1000","2.6812","1.3233"
"161.4000","2.6870","1.3259"
"161.7000","2.6911","1.3208"
"162.0000","2.6966","1.3211"
"162.3000","2.7016","1.3203"
"162.6000","2.7064","1.3180"
"162.9000","2.7118","1.3188"
"163.2000","2.7162","1.3148"
"163.5000","2.7216","1.3160"
"163.8000","2.7266","1.3152"
"164.1000","2.7315","1.3142"
"164.4000","2.7365","1.3134"
"164.7000","2.7414","1.3121"
"165.0000","2.7465","1.3117"
"165.3000","2.7514","1.3105"
"165.6000","2.7567","1.3108"
"165.9000","2.7614","1.3081"
"166.2000","2.7667","1.3081"
"166.5000","2.7714","1.3051"
"166.8000","2.7763","1.3029"
"167.1000","2.7818","1.3033"
"167.4000","2.7863","1.2990"
"167.7000","2.7918","1.2993"
"168.0000","2.7964","1.2953"
"168.3000","2.8012","1.2913"
"168.6000","2.8069","1.2921"
"168.9000","2.8112","1.2855"
"169.2000","2.8168","1.2856"
"169.5000","2.8214","1.2797"
"169.8000","2.8262","1.2755"
"170.1000","2.8319","1.2756"
"170.4000","2.8361","1.2691"
"170.7000","2.8417","1.2690"
"171.0000","2.8465","1.2657"
"171.3000","2.8514","1.2621"
"171.6000","2.8568","1.2614"
"171.9000","2.8612","1.2553"
"172.2000","2.8666","1.2539"
"172.5000","2.8714","1.2515"
"172.8000","2.8765","1.2492"
"173.1000","2.8816","1.2476"
"173.4000","2.8864","1.2444"
"173.7000","2.8914","1.2425"
"174.0000","2.8964","1.2397"
"174.3000","2.9018","1.2393"
"174.6000","2.9064","1.2351"
"174.9000","2.9116","1.2333"
"175.2000","2.9164","1.2295"
"175.5000","2.9213","1.2264"
"175.8000","2.9267","1.2255"
"176.1000","2.9313","1.2213"
"176.4000","2.9369","1.2216"
"176.7000","2.9414","1.2179"
"177.0000","2.9462","1.2146"
"177.3000","2.9519","1.2154"
"177.6000","2.9562","1.2103"
"177.9000","2.9620","1.2114"
"178.2000","2.9663","1.2066"
"178.5000","2.9713","1.2031"
"178.8000","2.9768","1.2041"
"179.1000","2.9811","1.1976"
"179.4000","2.9868","1.1985"
"179.7000","2.9914","1.1947"
"180.0000","2.9965","1.1924"
"180.3000","3.0018","1.1924"
"180.6000","3.0062","1.1881"
"180.9000","3.0117","1.1886"
"181.2000","3.0165","1.1862"
"181.5000","3.0216","1.1848"
"181.8000","3.0266","1.1827"
"182.1000","3.0314","1.1798"
"182.4000","3.0365","1.1772"
"182.7000","3.0414","1.1739"
"183.0000","3.0467","1.1728"
"183.3000","3.0514","1.1687"
"183.6000","3.0568","1.1668"
"183.9000","3.0615","1.1615"
"184.2000","3.0664","1.1568"
"184.5000","3.0716","1.1552"
"184.8000","3.0762","1.1501"
"185.1000","3.0820","1.1508"
"185.4000","3.0864","1.1463"
"185.7000","3.0914","1.1436"
"186.0000","3.0967","1.1434"
"186.3000","3.1012","1.1384"
"186.6000","3.1070","1.1396"
"186.9000","3.1113","1.1344"
"187.2000","3.1164","1.1326"
"187.5000","3.1217","1.1328"
"187.8000","3.1261","1.1278"
"188.1000","3.1318","1.1288"
"188.4000","3.1363","1.1243"
"188.7000","3.1415","1.1227"
"189.0000","3.1467","1.1223"
"189.3000","3.1513","1.1186"
"189.6000","3.1567","1.1181"
"189.9000","3.1614","1.1150"
"190.2000","3.1665","1.1137"
"190.5000","3.1716","1.1125"
"190.8000","3.1765","1.1101"
"191.1000","3.1814","1.1081"
"191.4000","3.1864","1.1063"
"191.7000","3.1916","1.1054"
"192.0000","3.1964","1.1029"
"192.3000","3.2018","1.1030"
"192.6000","3.2064","1.0989"
"192.9000","3.2114","1.0961"
"193.2000","3.2165","1.0945"
"193.5000","3.2212","1.0905"
"193.8000","3.2271","1.0919"
"194.1000","3.2313","1.0863"
"194.4000","3.2364","1.0847"
"194.7000","3.2417","1.0851"
"195.0000","3.2462","1.0806"
"195.3000","3.2521","1.0833"
"195.6000","3.2563","1.0781"
"195.9000","3.2615","1.0766"
"196.2000","3.2667","1.0773"
"196.5000","3.2711","1.0724"
"196.8000","3.2769","1.0744"
"197.1000","3.2813","1.0710"
"197.4000","3.2865","1.0702"
"197.7000","3.2918","1.0709"
"198.0000","3.2963","1.0670"
"198.3000","3.3017","1.0680"
"198.6000","3.3063","1.0658"
"198.9000","3.3115","1.0652"
"199.2000","3.3166","1.0648"
"199.5000","3.3215","1.0639"
"199.8000","3.3265","1.0624"
"200.1000","3.3314","1.0605"
"200.4000","3.3366","1.0601"
"200.7000","3.3415","1.0579"
"201.0000","3.3469","1.0579"
"201.3000","3.3514","1.0546"
"201.6000","3.3565","1.0529"
"201.9000","3.3615","1.0519"
"202.2000","3.3662","1.0491"
"202.5000","3.3721","1.0514"
"202.8000","3.3764","1.0469"
"203.1000","3.3814","1.0449"
"203.4000","3.3866","1.0446"
"203.7000","3.3911","1.0400"
"204.0000","3.3970","1.0429"
"204.3000","3.4012","1.0379"
"204.6000","3.4065","1.0369"
"204.9000","3.4116","1.0363"
"205.2000","3.4161","1.0316"
"205.5000","3.4219","1.0329"
"205.8000","3.4263","1.0286"
"206.1000","3.4315","1.0272"
"206.4000","3.4368","1.0272"
"206.7000","3.4413","1.0231"
"207.0000","3.4467","1.0237"
"207.3000","3.4512","1.0200"
"207.6000","3.4565","1.0198"
"207.9000","3.4616","1.0190"
"208.2000","3.4665","1.0163"
"208.5000","3.4716","1.0152"
"208.8000","3.4765","1.0124"
"209.1000","3.4816","1.0119"
"209.4000","3.4865","1.0094"
"209.7000","3.4918","1.0093"
"210.0000","3.4964","1.0055"
"210.3000","3.5015","1.0044"
"210.6000","3.5065","1.0040"
"210.9000","3.5112","1.0012"
"211.2000","3.5170","1.0042"
"211.5000","3.5213","0.9989"
"211.8000","3.5266","0.9986"
"212.1000","3.5316","0.9977"
"212.4000","3.5362","0.9932"
"212.7000","3.5423","0.9980"
"213.0000","3.5464","0.9917"
"213.3000","3.5516","0.9910"
"213.6000","3.5567","0.9913"
"213.9000","3.5612","0.9874"
"214.2000","3.5668","0.9898"
"214.5000","3.5713","0.9861"
"214.8000","3.5766","0.9858"
"215.1000","3.5817","0.9855"
"215.4000","3.5864","0.9828"
"215.7000","3.5917","0.9829"
"216.0000","3.5963","0.9802"
"216.3000","3.6016","0.9806"
"216.6000","3.6065","0.9791"
"216.9000","3.6115","0.9773"
"217.2000","3.6165","0.9766"
"217.5000","3.6215","0.9742"
"217.8000","3.6265","0.9736"
"218.1000","3.6314","0.9712"
"218.4000","3.6368","0.9716"
"218.7000","3.6415","0.9695"
"219.0000","3.6466","0.9691"
"219.3000","3.6514","0.9681"
"219.6000","3.6562","0.9667"
"219.9000","3.6619","0.9694"
"220.2000","3.6662","0.9663"
"220.5000","3.6716","0.9671"
"220.8000","3.6765","0.9659"
"221.1000","3.6812","0.9638"
"221.4000","3.6869","0.9664"
"221.7000","3.6912","0.9631"
"222.0000","3.6967","0.9637"
"222.3000","3.7015","0.9631"
"222.6000","3.7063","0.9607"
"222.9000","3.7118","0.9625"
"223.2000","3.7162","0.9590"
"223.5000","3.7216","0.9597"
"223.8000","3.7267","0.9592"
"224.1000","3.7314","0.9564"
"224.4000","3.7367","0.9571"
"224.7000","3.7413","0.9534"
"225.0000","3.7465","0.9534"
"225.3000","3.7515","0.9523"
"225.6000","3.7565","0.9501"
"225.9000","3.7615","0.9488"
"226.2000","3.7664","0.9466"
"226.5000","3.7715","0.9455"
"226.8000","3.7765","0.9442"
"227.1000","3.7818","0.9436"
"227.4000","3.7864","0.9411"
"227.7000","3.7917","0.9413"
"228.0000","3.7964","0.9393"
"228.3000","3.8013","0.9366"
"228.6000","3.8068","0.9382"
"228.9000","3.8113","0.9342"
"229.2000","3.8167","0.9348"
"229.5000","3.8214","0.9323"
"229.8000","3.8262","0.9298"
"230.1000","3.8320","0.9320"
"230.4000","3.8362","0.9274"
"230.7000","3.8417","0.9277"
"231.0000","3.8464","0.9261"
"231.3000","3.8513","0.9234"
"231.6000","3.8569","0.9256"
"231.9000","3.8611","0.9211"
"232.2000","3.8667","0.9224"
"232.5000","3.8716","0.9211"
"232.8000","3.8765","0.9188"
"233.1000","3.8818","0.9198"
"233.4000","3.8863","0.9160"
"233.7000","3.8915","0.9159"
"234.0000","3.8965","0.9151"
"234.3000","3.9016","0.9141"
"234.6000","3.9065","0.9128"
"234.9000","3.9115","0.9120"
"235.2000","3.9165","0.9105"
"235.5000","3.9214","0.9090"
"235.8000","3.9268","0.9099"
"236.1000","3.9313","0.9070"
"236.4000","3.9368","0.9078"
"236.7000","3.9414","0.9056"
"237.0000","3.9462","0.9032"
"237.3000","3.9518","0.9060"
"237.6000","3.9562","0.9020"
"237.9000","3.9619","0.9031"
"238.2000","3.9664","0.9003"
"238.5000","3.9712","0.8979"
"238.8000","3.9768","0.8998"
"239.1000","3.9811","0.8954"
"239.4000","3.9868","0.8973"
"239.7000","3.9914","0.8949"
"240.0000","3.9964","0.8933"
"240.3000","4.0018","0.8950"
"240.6000","4.0061","0.8906"
"240.9000","4.0117","0.8921"
"241.2000","4.0165","0.8900"
"241.5000","4.0214","0.8884"
"241.8000","4.0267","0.8885"
"242.1000","4.0313","0.8854"
"242.4000","4.0366","0.8856"
"242.7000","4.0414","0.8839"
"243.0000","4.0466","0.8843"
"243.3000","4.0515","0.8823"
"243.6000","4.0565","0.8816"
"243.9000","4.0615","0.8812"
"244.2000","4.0664","0.8793"
"244.5000","4.0717","0.8809"
"244.8000","4.0764","0.8789"
"245.1000","4.0818","0.8802"
"245.4000","4.0864","0.8778"
"245.7000","4.0913","0.8763"
"246.0000","4.0968","0.8791"
"246.3000","4.1013","0.8755"
"246.6000","4.1070","0.8773"
"246.9000","4.1114","0.8736"
"247.2000","4.1162","0.8715"
"247.5000","4.1218","0.8741"
"247.8000","4.1261","0.8698"
"248.1000","4.1319","0.8722"
"248.4000","4.1363","0.8698"
"248.7000","4.1414","0.8688"
"249.0000","4.1468","0.8705"
"249.3000","4.1512","0.8666"
"249.6000","4.1568","0.8683"
"249.9000","4.1613","0.8661"
"250.2000","4.1666","0.8653"
"250.5000","4.1718","0.8657"
"250.8000","4.1762","0.8616"
"251.1000","4.1815","0.8614"
"251.4000","4.1863","0.8598"
"251.7000","4.1916","0.8592"
"252.0000","4.1966","0.8582"
"252.3000","4.2016","0.8573"
"252.6000","4.2064","0.8550"
"252.9000","4.2114","0.8541"
"253.2000","4.2166","0.8539"
"253.5000","4.2214","0.8511"
"253.8000","4.2269","0.8525"
"254.1000","4.2313","0.8488"
"254.4000","4.2363","0.8473"
"254.7000","4.2417","0.8484"
"255.0000","4.2462","0.8455"
"255.3000","4.2520","0.8481"
"255.6000","4.2563","0.8447"
"255.9000","4.2614","0.8436"
"256.2000","4.2668","0.8455"
"256.5000","4.2711","0.8418"
"256.8000","4.2770","0.8452"
"257.1000","4.2813","0.8416"
"257.4000","4.2864","0.8415"
"257.7000","4.2918","0.8440"
"258.0000","4.2962","0.8409"
"258.3000","4.3017","0.8434"
"258.6000","4.3064","0.8416"
"258.9000","4.3115","0.8413"
"259.2000","4.3168","0.8426"
"259.5000","4.3213","0.8399"
"259.8000","4.3266","0.8405"
"260.1000","4.3314","0.8394"
"260.4000","4.3365","0.8393"
"260.7000","4.3415","0.8391"
"261.0000","4.3466","0.8393"
"261.3000","4.3515","0.8382"
"261.6000","4.3564","0.8375"
"261.9000","4.3615","0.8382"
"262.2000","4.3663","0.8373"
"262.5000","4.3717","0.8391"
"262.8000","4.3763","0.8374"
"263.1000","4.3814","0.8376"
"263.4000","4.3866","0.8389"
"263.7000","4.3912","0.8358"
"264.0000","4.3970","0.8393"
"264.3000","4.4013","0.8353"
"264.6000","4.4064","0.8342"
"264.9000","4.4117","0.8352"
"265.2000","4.4161","0.8315"
"265.5000","4.4219","0.8340"
"265.8000","4.4262","0.8305"
"266.1000","4.4314","0.8296"
"266.4000","4.4367","0.8307"
"266.7000","4.4412","0.8272"
"267.0000","4.4468","0.8294"
"267.3000","4.4514","0.8270"
"267.6000","4.4565","0.8270"
"267.9000","4.4617","0.8280"
"268.2000","4.4663","0.8255"
"268.5000","4.4716","0.8261"
"268.8000","4.4764","0.8249"
"269.1000","4.4816","0.8247"
"269.4000","4.4866","0.8246"
"269.7000","4.4916","0.8235"
"270.0000","4.4964","0.8218"
"270.3000","4.5015","0.8214"
"270.6000","4.5066","0.8216"
"270.9000","4.5114","0.8199"
"271.2000","4.5169","0.8215"
"271.5000","4.5213","0.8182"
"271.8000","4.5265","0.8176"
"272.1000","4.5315","0.8173"
"272.4000","4.5362","0.8145"
"272.7000","4.5420","0.8166"
"273.0000","4.5463","0.8137"
"273.3000","4.5515","0.8126"
"273.6000","4.5567","0.8131"
"273.9000","4.5611","0.8091"
"274.2000","4.5669","0.8117"
"274.5000","4.5712","0.8079"
"274.8000","4.5765","0.8076"
"275.1000","4.5818","0.8082"
"275.4000","4.5862","0.8035"
"275.7000","4.5917","0.8056"
"276.0000","4.5963","0.8033"
"276.3000","4.6016","0.8036"
"276.6000","4.6068","0.8047"
"276.9000","4.6114","0.8017"
"277.2000","4.6164","0.8024"
"277.5000","4.6213","0.8013"
"277.8000","4.6265","0.8016"
"278.1000","4.6316","0.8013"
"278.4000","4.6365","0.8000"
"278.7000","4.6414","0.7993"
"279.0000","4.6464","0.7979"
"279.3000","4.6516","0.7986"
"279.6000","4.6564","0.7973"
"279.9000","4.6618","0.7993"
"280.2000","4.6663","0.7973"
"280.5000","4.6715","0.7970"
"280.8000","4.6766","0.7983"
"281.1000","4.6812","0.7956"
"281.4000","4.6869","0.7991"
"281.7000","4.6914","0.7956"
"282.0000","4.6966","0.7951"
"282.3000","4.7017","0.7955"
"282.6000","4.7060","0.7910"
"282.9000","4.7118","0.7943"
"283.2000","4.7162","0.7911"
"283.5000","4.7216","0.7912"
"283.8000","4.7267","0.7918"
"284.1000","4.7312","0.7879"
"284.4000","4.7367","0.7896"
"284.7000","4.7412","0.7871"
"285.0000","4.7466","0.7877"
"285.3000","4.7517","0.7882"
"285.6000","4.7564","0.7862"
"285.9000","4.7616","0.7869"
"286.2000","4.7662","0.7847"
"286.5000","4.7714","0.7850"
"286.8000","4.7765","0.7854"
"287.1000","4.7816","0.7854"
"287.4000","4.7865","0.7849"
"287.7000","4.7915","0.7841"
"288.0000","4.7965","0.7845"
"288.3000","4.8013","0.7834"
"288.6000","4.8068","0.7850"
"288.9000","4.8114","0.7832"
"289.2000","4.8166","0.7828"
"289.5000","4.8215","0.7818"
"289.8000","4.8261","0.7788"
"290.1000","4.8318","0.7815"
"290.4000","4.8363","0.7783"
"290.7000","4.8418","0.7781"
"291.0000","4.8465","0.7753"
"291.3000","4.8512","0.7723"
"291.6000","4.8569","0.7749"
"291.9000","4.8612","0.7706"
"292.2000","4.8666","0.7712"
"292.5000","4.8715","0.7707"
"292.8000","4.8763","0.7681"
"293.1000","4.8819","0.7698"
"293.4000","4.8863","0.7671"
"293.7000","4.8916","0.7671"
"294.0000","4.8966","0.7664"
"294.3000","4.9015","0.7651"
"294.6000","4.9066","0.7645"
"294.9000","4.9114","0.7627"
"295.2000","4.9165","0.7624"
"295.5000","4.9215","0.7617"
"295.8000","4.9266","0.7617"
"296.1000","4.9315","0.7602"
"296.4000","4.9365","0.7592"
"296.7000","4.9415","0.7588"
"297.0000","4.9464","0.7571"
"297.3000","4.9517","0.7584"
"297.6000","4.9564","0.7562"
"297.9000","4.9618","0.7576"
"298.2000","4.9664","0.7556"
"298.5000","4.9712","0.7536"
"298.8000","4.9770","0.7570"
"299.1000","4.9813","0.7533"
"299.4000","4.9868","0.7552"
"299.7000","4.9915","0.7536"
"300.0000","4.9962","0.7514"
"300.3000","5.0020","0.7552"
"300.6000","5.0061","0.7503"
"300.9000","5.0118","0.7529"
"301.2000","5.0166","0.7528"
"301.5000","5.0213","0.7502"
"301.8000","5.0268","0.7519"
"302.1000","5.0312","0.7487"
"302.4000","5.0366","0.7499"
"302.7000","5.0416","0.7492"
"303.0000","5.0465","0.7478"
"303.3000","5.0516","0.7478"
"303.6000","5.0563","0.7457"
"303.9000","5.0615","0.7459"
"304.2000","5.0665","0.7449"
"304.5000","5.0716","0.7444"
"304.8000","5.0765","0.7430"
"305.1000","5.0816","0.7419"
"305.4000","5.0864","0.7408"
"305.7000","5.0914","0.7392"
"306.0000","5.0967","0.7404"
"306.3000","5.1013","0.7370"
"306.6000","5.1068","0.7382"
"306.9000","5.1114","0.7360"
"307.2000","5.1163","0.7342"
"307.5000","5.1220","0.7366"
"307.8000","5.1263","0.7329"
"308.1000","5.1318","0.7340"
"308.4000","5.1364","0.7320"
"308.7000","5.1412","0.7300"
"309.0000","5.1468","0.7330"
"309.3000","5.1511","0.7296"
"309.6000","5.1568","0.7314"
"309.9000","5.1614","0.7299"
"310.2000","5.1664","0.7288"
"310.5000","5.1720","0.7307"
"310.8000","5.1762","0.7270"
"311.1000","5.1817","0.7280"
"311.4000","5.1866","0.7275"
"311.7000","5.1915","0.7267"
"312.0000","5.1967","0.7271"
"312.3000","5.2013","0.7243"
"312.6000","5.2065","0.7247"
"312.9000","5.2114","0.7242"
"313.2000","5.2167","0.7248"
"313.5000","5.2216","0.7238"
"313.8000","5.2266","0.7235"
"314.1000","5.2315","0.7225"
"314.4000","5.2363","0.7203"
"314.7000","5.2418","0.7220"
"315.0000","5.2463","0.7191"
"315.3000","5.2519","0.7204"
"315.6000","5.2564","0.7175"
"315.9000","5.2612","0.7153"
"316.2000","5.2669","0.7184"
"316.5000","5.2712","0.7143"
"316.8000","5.2769","0.7167"
"317.1000","5.2814","0.7147"
"317.4000","5.2863","0.7125"
"317.7000","5.2920","0.7165"
"318.0000","5.2961","0.7122"
"318.3000","5.3019","0.7153"
"318.6000","5.3064","0.7134"
"318.9000","5.3113","0.7118"
"319.2000","5.3169","0.7141"
"319.5000","5.3212","0.7096"
"319.8000","5.3267","0.7111"
"320.1000","5.3314","0.7102"
"320.4000","5.3365","0.7093"
"320.7000","5.3417","0.7101"
"321.0000","5.3463","0.7078"
"321.3000","5.3515","0.7084"
"321.6000","5.3564","0.7084"
"321.9000","5.3616","0.7091"
"322.2000","5.3665","0.7080"
"322.5000","5.3717","0.7082"
"322.8000","5.3764","0.7071"
"323.1000","5.3814","0.7063"
"323.4000","5.3867","0.7072"
"323.7000","5.3913","0.7050"
"324.0000","5.3969","0.7069"
"324.3000","5.4013","0.7045"
"324.6000","5.4063","0.7026"
"324.9000","5.4118","0.7046"
"325.2000","5.4162","0.7008"
"325.5000","5.4220","0.7038"
"325.8000","5.4263","0.7008"
"326.1000","5.4313","0.6996"
"326.4000","5.4367","0.7020"
"326.7000","5.4411","0.6980"
"327.0000","5.4469","0.7013"
"327.3000","5.4514","0.6989"
"327.6000","5.4565","0.6983"
"327.9000","5.4619","0.7001"
"328.2000","5.4663","0.6964"
"328.5000","5.4717","0.6974"
"328.8000","5.4764","0.6961"
"329.1000","5.4815","0.6951"
"329.4000","5.4867","0.6952"
"329.7000","5.4914","0.6932"
"330.0000","5.4966","0.6937"
"330.3000","5.5014","0.6914"
"330.6000","5.5065","0.6919"
"330.9000","5.5115","0.6910"
"331.2000","5.5167","0.6916"
"331.5000","5.5215","0.6904"
"331.8000","5.5264","0.6893"
"332.1000","5.5316","0.6899"
"332.4000","5.5362","0.6876"
"332.7000","5.5419","0.6905"
"333.0000","5.5464","0.6877"
"333.3000","5.5513","0.6865"
"333.6000","5.5567","0.6882"
"333.9000","5.5612","0.6851"
"334.2000","5.5670","0.6876"
"334.5000","5.5713","0.6841"
"334.8000","5.5764","0.6831"
"335.1000","5.5817","0.6845"
"335.4000","5.5861","0.6805"
"335.7000","5.5920","0.6834"
"336.0000","5.5963","0.6797"
"336.3000","5.6015","0.6779"
"336.6000","5.6067","0.6789"
"336.9000","5.6112","0.6753"
"337.2000","5.6168","0.6772"
"337.5000","5.6214","0.6753"
"337.8000","5.6265","0.6750"
"338.1000","5.6317","0.6752"
"338.4000","5.6364","0.6734"
"338.7000","5.6415","0.6738"
"339.0000","5.6464","0.6724"
"339.3000","5.6515","0.6728"
"339.6000","5.6565","0.6725"
"339.9000","5.6617","0.6726"
"340.2000","5.6665","0.6710"
"340.5000","5.6714","0.6692"
"340.8000","5.6766","0.6705"
"341.1000","5.6813","0.6688"
"341.4000","5.6870","0.6719"
"341.7000","5.6913","0.6686"
"342.0000","5.6965","0.6684"
"342.3000","5.7016","0.6696"
"342.6000","5.7062","0.6671"
"342.9000","5.7120","0.6702"
"343.2000","5.7163","0.6668"
"343.5000","5.7214","0.6667"
"343.8000","5.7266","0.6683"
"344.1000","5.7311","0.6655"
"344.4000","5.7370","0.6688"
"344.7000","5.7412","0.6660"
"345.0000","5.7466","0.6662"
"345.3000","5.7517","0.6678"
"345.6000","5.7562","0.6647"
"345.9000","5.7617","0.6661"
"346.2000","5.7663","0.6642"
"346.5000","5.7716","0.6643"
"346.8000","5.7766","0.6650"
"347.1000","5.7814","0.6641"
"347.4000","5.7865","0.6641"
"347.7000","5.7913","0.6635"
"348.0000","5.7965","0.6641"
"348.3000","5.8015","0.6634"
"348.6000","5.8068","0.6640"
"348.9000","5.8114","0.6619"
"349.2000","5.8164","0.6605"
"349.5000","5.8214","0.6608"
"349.8000","5.8263","0.6593"
"350.1000","5.8319","0.6620"
"350.4000","5.8363","0.6584"
"350.7000","5.8415","0.6577"
"351.0000","5.8465","0.6580"
"351.3000","5.8511","0.6554"
"351.6000","5.8570","0.6588"
"351.9000","5.8613","0.6549"
"352.2000","5.8666","0.6547"
"352.5000","5.8715","0.6549"
"352.8000","5.8760","0.6519"
"353.1000","5.8820","0.6560"
"353.4000","5.8862","0.6521"
"353.7000","5.8916","0.6522"
"354.0000","5.8967","0.6519"
"354.3000","5.9013","0.6487"
"354.6000","5.9068","0.6498"
"354.9000","5.9112","0.6473"
"355.2000","5.9165","0.6474"
"355.5000","5.9216","0.6471"
"355.8000","5.9264","0.6451"
"356.1000","5.9316","0.6446"
"356.4000","5.9364","0.6425"
"356.7000","5.9415","0.6423"
"357.0000","5.9465","0.6405"
"357.3000","5.9518","0.6403"
"357.6000","5.9564","0.6376"
"357.9000","5.9616","0.6365"
"358.2000","5.9665","0.6355"
"358.5000","5.9712","0.6332"
"358.8000","5.9769","0.6358"
"359.1000","5.9813","0.6318"
"359.4000","5.9866","0.6318"
"359.7000","5.9915","0.6316"
"360.0000","5.9962","0.6284"
"360.3000","6.0022","0.6326"
"360.6000","6.0063","0.6284"
"360.9000","6.0116","0.6287"
"361.2000","6.0165","0.6287"
"361.5000","6.0211","0.6263"
"361.8000","6.0270","0.6291"
"362.1000","6.0312","0.6257"
"362.4000","6.0366","0.6266"
"362.7000","6.0416","0.6272"
"363.0000","6.0463","0.6243"
"363.3000","6.0519","0.6264"
"363.6000","6.0562","0.6236"
"363.9000","6.0616","0.6244"
"364.2000","6.0665","0.6244"
"364.5000","6.0715","0.6231"
"364.8000","6.0766","0.6226"
"365.1000","6.0814","0.6216"
"365.4000","6.0865","0.6220"
"365.7000","6.0914","0.6211"
"366.0000","6.0968","0.6221"
"366.3000","6.1014","0.6199"
"366.6000","6.1066","0.6202"
"366.9000","6.1114","0.6194"
"367.2000","6.1162","0.6173"
"367.5000","6.1219","0.6196"
"367.8000","6.1263","0.6158"
"368.1000","6.1317","0.6160"
"368.4000","6.1364","0.6150"
"368.7000","6.1412","0.6122"
"369.0000","6.1470","0.6159"
"369.3000","6.1512","0.6117"
"369.6000","6.1567","0.6126"
"369.9000","6.1615","0.6117"
"370.2000","6.1662","0.6086"
"370.5000","6.1720","0.6115"
"370.8000","6.1762","0.6067"
"371.1000","6.1816","0.6072"
"371.4000","6.1866","0.6065"
"371.7000","6.1914","0.6037"
"372.0000","6.1968","0.6043"
"372.3000","6.2012","0.6011"
"372.6000","6.2065","0.6012"
"372.9000","6.2115","0.6004"
"373.2000","6.2165","0.5995"
"373.5000","6.2216","0.5986"
"373.8000","6.2264","0.5979"
"374.1000","6.2315","0.5973"
"374.4000","6.2364","0.5964"
"374.7000","6.2417","0.5972"
"375.0000","6.2465","0.5960"
"375.3000","6.2518","0.5966"
"375.6000","6.2564","0.5946"
"375.9000","6.2613","0.5929"
"376.2000","6.2668","0.5949"
"376.5000","6.2713","0.5918"
"376.8000","6.2768","0.5926"
"377.1000","6.2813","0.5912"
"377.4000","6.2862","0.5892"
"377.7000","6.2920","0.5923"
"378.0000","6.2962","0.5882"
"378.3000","6.3018","0.5897"
"378.6000","6.3064","0.5881"
"378.9000","6.3113","0.5861"
"379.2000","6.3169","0.5886"
"379.5000","6.3211","0.5855"
"379.8000","6.3267","0.5871"
"380.1000","6.3316","0.5871"
"380.4000","6.3364","0.5853"
"380.7000","6.3418","0.5866"
"381.0000","6.3462","0.5836"
"381.3000","6.3516","0.5844"
"381.6000","6.3565","0.5841"
"381.9000","6.3615","0.5824"
"382.2000","6.3667","0.5832"
"382.5000","6.3713","0.5805"
"382.8000","6.3764","0.5804"
"383.1000","6.3814","0.5799"
"383.4000","6.3866","0.5805"
"383.7000","6.3915","0.5792"
"384.0000","6.3968","0.5800"
"384.3000","6.4014","0.5783"
"384.6000","6.4062","0.5772"
"384.9000","6.4117","0.5797"
"385.2000","6.4163","0.5764"
"385.5000","6.4219","0.5780"
"385.8000","6.4263","0.5754"
"386.1000","6.4311","0.5733"
"386.4000","6.4369","0.5765"
"386.7000","6.4412","0.5730"
"387.0000","6.4470","0.5744"
"387.3000","6.4514","0.5730"
"387.6000","6.4562","0.5707"
"387.9000","6.4620","0.5742"
"388.2000","6.4662","0.5703"
"388.5000","6.4718","0.5719"
"388.8000","6.4764","0.5705"
"389.1000","6.4813","0.5686"
"389.4000","6.4868","0.5700"
"389.7000","6.4912","0.5666"
"390.0000","6.4967","0.5676"
"390.3000","6.5015","0.5664"
"390.6000","6.5064","0.5653"
"390.9000","6.5116","0.5658"
"391.2000","6.5163","0.5636"
"391.5000","6.5215","0.5634"
"391.8000","6.5264","0.5626"
"392.1000","6.5317","0.5634"
"392.4000","6.5365","0.5619"
"392.7000","6.5417","0.5626"
"393.0000","6.5464","0.5604"
"393.3000","6.5513","0.5586"
"393.6000","6.5567","0.5608"
"393.9000","6.5613","0.5575"
"394.2000","6.5669","0.5598"
"394.5000","6.5714","0.5572"
"394.8000","6.5763","0.5547"
"395.1000","6.5818","0.5581"
"395.4000","6.5861","0.5529"
"395.7000","6.5919","0.5558"
"396.0000","6.5963","0.5529"
"396.3000","6.6013","0.5511"
"396.6000","6.6068","0.5542"
"396.9000","6.6111","0.5502"
"397.2000","6.6168","0.5523"
"397.5000","6.6214","0.5505"
"397.8000","6.6265","0.5497"
"398.1000","6.6318","0.5514"
"398.4000","6.6362","0.5483"
"398.7000","6.6416","0.5501"
"399.0000","6.6464","0.5500"
"399.3000","6.6515","0.5491"
"399.6000","6.6566","0.5494"
"399.9000","6.6615","0.5484"
"400.2000","6.6665","0.5480"
"400.5000","6.6715","0.5468"
"400.8000","6.6766","0.5468"
"401.1000","6.6814","0.5456"
"401.4000","6.6868","0.5466"
"401.7000","6.6914","0.5444"
"402.0000","6.6964","0.5438"
"402.3000","6.7016","0.5452"
"402.6000","6.7062","0.5430"
"402.9000","6.7120","0.5455"
"403.2000","6.7163","0.5432"
"403.5000","6.7214","0.5418"
"403.8000","6.7267","0.5444"
"404.1000","6.7311","0.5410"
"404.4000","6.7370","0.5446"
"404.7000","6.7413","0.5420"
"405.0000","6.7464","0.5416"
"405.3000","6.7518","0.5443"
"405.6000","6.7561","0.5412"
"405.9000","6.7618","0.5437"
"406.2000","6.7663","0.5417"
"406.5000","6.7715","0.5413"
"406.8000","6.7768","0.5428"
"407.1000","6.7813","0.5399"
"407.4000","6.7866","0.5412"
"407.7000","6.7914","0.5401"
"408.0000","6.7965","0.5399"
"408.3000","6.8016","0.5406"
"408.6000","6.8066","0.5396"
"408.9000","6.8115","0.5391"
"409.2000","6.8165","0.5385"
"409.5000","6.8216","0.5395"
"409.8000","6.8264","0.5381"
"410.1000","6.8318","0.5399"
"410.4000","6.8364","0.5385"
"410.4690","6.8376","0.5387"