File: DestructiveTests/Tensile/FLAX TENSILE.is_qtest_Exports/FLAX TENSILE_1.csv
Time,Displacement,Force
(s),(mm),(kN)
"0.0000","0.0000","0.0168"
"0.2000","0.0004","0.0177"
"0.4000","0.0009","0.0184"
"0.6000","0.0076","0.0396"
"0.8000","0.0107","0.0487"
"1.0000","0.0141","0.0579"
"1.2000","0.0172","0.0655"
"1.4000","0.0211","0.0747"
"1.6000","0.0238","0.0807"
"1.8000","0.0274","0.0883"
"2.0000","0.0306","0.0944"
"2.2000","0.0339","0.1008"
"2.4000","0.0379","0.1089"
"2.6000","0.0404","0.1132"
"2.8000","0.0440","0.1205"
"3.0000","0.0473","0.1253"
"3.2000","0.0505","0.1313"
"3.4000","0.0545","0.1385"
"3.6000","0.0571","0.1420"
"3.8000","0.0609","0.1476"
"4.0000","0.0640","0.1513"
"4.2000","0.0671","0.1561"
"4.4000","0.0710","0.1621"
"4.6000","0.0738","0.1650"
"4.8000","0.0776","0.1706"
"5.0000","0.0807","0.1740"
"5.2000","0.0839","0.1776"
"5.4000","0.0876","0.1827"
"5.6000","0.0905","0.1856"
"5.8000","0.0943","0.1908"
"6.0000","0.0974","0.1940"
"6.2000","0.1006","0.1979"
"6.4000","0.1040","0.2026"
"6.6000","0.1072","0.2053"
"6.8000","0.1108","0.2094"
"7.0000","0.1140","0.2121"
"7.2000","0.1172","0.2150"
"7.4000","0.1207","0.2188"
"7.6000","0.1241","0.2220"
"7.8000","0.1274","0.2246"
"8.0000","0.1307","0.2276"
"8.2000","0.1340","0.2298"
"8.4000","0.1374","0.2327"
"8.6000","0.1409","0.2353"
"8.8000","0.1439","0.2364"
"9.0000","0.1474","0.2384"
"9.2000","0.1507","0.2401"
"9.4000","0.1539","0.2424"
"9.6000","0.1577","0.2454"
"9.8000","0.1605","0.2462"
"10.0000","0.1638","0.2484"
"10.2000","0.1675","0.2511"
"10.4000","0.1706","0.2529"
"10.6000","0.1745","0.2562"
"10.8000","0.1771","0.2564"
"11.0000","0.1808","0.2594"
"11.2000","0.1841","0.2607"
"11.4000","0.1872","0.2628"
"11.6000","0.1913","0.2661"
"11.8000","0.1937","0.2659"
"12.0000","0.1974","0.2690"
"12.2000","0.2008","0.2704"
"12.4000","0.2039","0.2726"
"12.6000","0.2078","0.2759"
"12.8000","0.2103","0.2757"
"13.0000","0.2141","0.2794"
"13.2000","0.2174","0.2801"
"13.4000","0.2204","0.2822"
"13.6000","0.2245","0.2852"
"13.8000","0.2271","0.2852"
"14.0000","0.2309","0.2887"
"14.2000","0.2342","0.2895"
"14.4000","0.2372","0.2911"
"14.6000","0.2410","0.2937"
"14.8000","0.2438","0.2940"
"15.0000","0.2475","0.2976"
"15.2000","0.2508","0.2987"
"15.4000","0.2539","0.3005"
"15.6000","0.2575","0.3030"
"15.8000","0.2607","0.3042"
"16.0000","0.2642","0.3063"
"16.2000","0.2674","0.3069"
"16.4000","0.2705","0.3084"
"16.6000","0.2741","0.3106"
"16.8000","0.2775","0.3129"
"17.0000","0.2807","0.3145"
"17.2000","0.2841","0.3166"
"17.4000","0.2873","0.3179"
"17.6000","0.2906","0.3199"
"17.8000","0.2943","0.3225"
"18.0000","0.2973","0.3237"
"18.2000","0.3007","0.3261"
"18.4000","0.3041","0.3277"
"18.6000","0.3072","0.3292"
"18.8000","0.3112","0.3321"
"19.0000","0.3137","0.3318"
"19.2000","0.3173","0.3340"
"19.4000","0.3208","0.3353"
"19.6000","0.3239","0.3369"
"19.8000","0.3280","0.3406"
"20.0000","0.3304","0.3393"
"20.2000","0.3341","0.3422"
"20.4000","0.3374","0.3430"
"20.6000","0.3404","0.3445"
"20.8000","0.3447","0.3480"
"21.0000","0.3470","0.3469"
"21.2000","0.3508","0.3498"
"21.4000","0.3542","0.3510"
"21.6000","0.3571","0.3525"
"21.8000","0.3611","0.3556"
"22.0000","0.3636","0.3552"
"22.2000","0.3674","0.3583"
"22.4000","0.3709","0.3594"
"22.6000","0.3738","0.3609"
"22.8000","0.3778","0.3639"
"23.0000","0.3805","0.3640"
"23.2000","0.3842","0.3676"
"23.4000","0.3874","0.3681"
"23.6000","0.3904","0.3689"
"23.8000","0.3943","0.3718"
"24.0000","0.3973","0.3724"
"24.2000","0.4009","0.3750"
"24.4000","0.4041","0.3765"
"24.6000","0.4071","0.3773"
"24.8000","0.4107","0.3796"
"25.0000","0.4140","0.3816"
"25.2000","0.4175","0.3838"
"25.4000","0.4207","0.3846"
"25.6000","0.4240","0.3860"
"25.8000","0.4274","0.3881"
"26.0000","0.4309","0.3902"
"26.2000","0.4339","0.3913"
"26.4000","0.4373","0.3934"
"26.6000","0.4407","0.3950"
"26.8000","0.4440","0.3967"
"27.0000","0.4477","0.3996"
"27.2000","0.4505","0.3998"
"27.4000","0.4540","0.4022"
"27.6000","0.4574","0.4038"
"27.8000","0.4605","0.4050"
"28.0000","0.4646","0.4084"
"28.2000","0.4670","0.4073"
"28.4000","0.4706","0.4098"
"28.6000","0.4742","0.4110"
"28.8000","0.4772","0.4124"
"29.0000","0.4812","0.4156"
"29.2000","0.4837","0.4148"
"29.4000","0.4874","0.4179"
"29.6000","0.4910","0.4195"
"29.8000","0.4938","0.4206"
"30.0000","0.4979","0.4243"
"30.2000","0.5004","0.4228"
"30.4000","0.5041","0.4264"
"30.6000","0.5076","0.4275"
"30.8000","0.5104","0.4284"
"31.0000","0.5145","0.4314"
"31.2000","0.5171","0.4305"
"31.4000","0.5209","0.4341"
"31.6000","0.5243","0.4351"
"31.8000","0.5271","0.4354"
"32.0000","0.5309","0.4386"
"32.2000","0.5339","0.4392"
"32.4000","0.5375","0.4422"
"32.6000","0.5408","0.4430"
"32.8000","0.5438","0.4439"
"33.0000","0.5475","0.4463"
"33.2000","0.5507","0.4471"
"33.4000","0.5540","0.4485"
"33.6000","0.5574","0.4500"
"33.8000","0.5606","0.4509"
"34.0000","0.5641","0.4530"
"34.2000","0.5674","0.4546"
"34.4000","0.5707","0.4562"
"34.6000","0.5741","0.4582"
"34.8000","0.5774","0.4592"
"35.0000","0.5807","0.4611"
"35.2000","0.5844","0.4641"
"35.4000","0.5872","0.4640"
"35.6000","0.5906","0.4660"
"35.8000","0.5942","0.4679"
"36.0000","0.5972","0.4688"
"36.2000","0.6010","0.4716"
"36.4000","0.6038","0.4713"
"36.6000","0.6073","0.4734"
"36.8000","0.6110","0.4754"
"37.0000","0.6138","0.4761"
"37.2000","0.6178","0.4796"
"37.4000","0.6204","0.4788"
"37.6000","0.6240","0.4813"
"37.8000","0.6276","0.4832"
"38.0000","0.6305","0.4841"
"38.2000","0.6345","0.4875"
"38.4000","0.6371","0.4863"
"38.6000","0.6406","0.4893"
"38.8000","0.6443","0.4910"
"39.0000","0.6470","0.4914"
"39.2000","0.6510","0.4944"
"39.4000","0.6539","0.4940"
"39.6000","0.6573","0.4963"
"39.8000","0.6609","0.4972"
"40.0000","0.6637","0.4979"
"40.2000","0.6677","0.5006"
"40.4000","0.6707","0.5008"
"40.6000","0.6741","0.5029"
"40.8000","0.6775","0.5041"
"41.0000","0.6805","0.5038"
"41.2000","0.6843","0.5074"
"41.4000","0.6873","0.5072"
"41.6000","0.6908","0.5096"
"41.8000","0.6940","0.5103"
"42.0000","0.6973","0.5121"
"42.2000","0.7008","0.5142"
"42.4000","0.7040","0.5156"
"42.6000","0.7074","0.5169"
"42.8000","0.7107","0.5187"
"43.0000","0.7139","0.5198"
"43.2000","0.7173","0.5211"
"43.4000","0.7210","0.5239"
"43.6000","0.7239","0.5238"
"43.8000","0.7273","0.5254"
"44.0000","0.7310","0.5276"
"44.2000","0.7339","0.5281"
"44.4000","0.7375","0.5299"
"44.6000","0.7405","0.5302"
"44.8000","0.7439","0.5320"
"45.0000","0.7476","0.5340"
"45.2000","0.7505","0.5342"
"45.4000","0.7544","0.5370"
"45.6000","0.7571","0.5360"
"45.8000","0.7606","0.5386"
"46.0000","0.7644","0.5410"
"46.2000","0.7671","0.5410"
"46.4000","0.7712","0.5445"
"46.6000","0.7737","0.5428"
"46.8000","0.7773","0.5453"
"47.0000","0.7811","0.5473"
"47.2000","0.7837","0.5468"
"47.4000","0.7877","0.5500"
"47.6000","0.7905","0.5488"
"47.8000","0.7939","0.5514"
"48.0000","0.7977","0.5531"
"48.2000","0.8003","0.5529"
"48.4000","0.8044","0.5567"
"48.6000","0.8072","0.5564"
"48.8000","0.8106","0.5589"
"49.0000","0.8142","0.5599"
"49.2000","0.8171","0.5601"
"49.4000","0.8210","0.5634"
"49.6000","0.8241","0.5637"
"49.8000","0.8274","0.5653"
"50.0000","0.8309","0.5671"
"50.2000","0.8338","0.5667"
"50.4000","0.8378","0.5698"
"50.6000","0.8407","0.5698"
"50.8000","0.8440","0.5705"
"51.0000","0.8475","0.5719"
"51.2000","0.8506","0.5723"
"51.4000","0.8541","0.5740"
"51.6000","0.8575","0.5750"
"51.8000","0.8606","0.5756"
"52.0000","0.8640","0.5769"
"52.2000","0.8675","0.5781"
"52.4000","0.8707","0.5794"
"52.6000","0.8742","0.5808"
"52.8000","0.8773","0.5812"
"53.0000","0.8807","0.5829"
"53.2000","0.8843","0.5845"
"53.4000","0.8872","0.5848"
"53.6000","0.8908","0.5871"
"53.8000","0.8938","0.5864"
"54.0000","0.8973","0.5890"
"54.2000","0.9011","0.5915"
"54.4000","0.9038","0.5907"
"54.6000","0.9077","0.5944"
"54.8000","0.9105","0.5930"
"55.0000","0.9139","0.5956"
"55.2000","0.9179","0.5990"
"55.4000","0.9204","0.5975"
"55.6000","0.9243","0.6011"
"55.8000","0.9272","0.6008"
"56.0000","0.9305","0.6026"
"56.2000","0.9344","0.6055"
"56.4000","0.9370","0.6042"
"56.6000","0.9411","0.6086"
"56.8000","0.9439","0.6078"
"57.0000","0.9472","0.6098"
"57.2000","0.9510","0.6122"
"57.4000","0.9537","0.6117"
"57.6000","0.9578","0.6163"
"57.8000","0.9606","0.6148"
"58.0000","0.9640","0.6174"
"58.2000","0.9676","0.6192"
"58.4000","0.9705","0.6193"
"58.6000","0.9743","0.6225"
"58.8000","0.9775","0.6237"
"59.0000","0.9807","0.6249"
"59.2000","0.9840","0.6258"
"59.4000","0.9872","0.6263"
"59.6000","0.9908","0.6288"
"59.8000","0.9942","0.6299"
"60.0000","0.9973","0.6311"
"60.2000","1.0006","0.6318"
"60.4000","1.0041","0.6336"
"60.6000","1.0074","0.6351"
"60.8000","1.0108","0.6372"
"61.0000","1.0140","0.6379"
"61.2000","1.0172","0.6391"
"61.4000","1.0209","0.6414"
"61.6000","1.0240","0.6422"
"61.8000","1.0275","0.6441"
"62.0000","1.0306","0.6443"
"62.2000","1.0338","0.6459"
"62.4000","1.0379","0.6495"
"62.6000","1.0405","0.6486"
"62.8000","1.0442","0.6516"
"63.0000","1.0472","0.6511"
"63.2000","1.0506","0.6530"
"63.4000","1.0547","0.6566"
"63.6000","1.0570","0.6546"
"63.8000","1.0610","0.6593"
"64.0000","1.0639","0.6582"
"64.2000","1.0672","0.6600"
"64.4000","1.0713","0.6640"
"64.6000","1.0737","0.6629"
"64.8000","1.0776","0.6658"
"65.0000","1.0806","0.6653"
"65.2000","1.0839","0.6672"
"65.4000","1.0878","0.6699"
"65.6000","1.0903","0.6691"
"65.8000","1.0942","0.6722"
"66.0000","1.0974","0.6726"
"66.2000","1.1006","0.6743"
"66.4000","1.1043","0.6767"
"66.6000","1.1071","0.6758"
"66.8000","1.1111","0.6807"
"67.0000","1.1141","0.6810"
"67.2000","1.1172","0.6819"
"67.4000","1.1209","0.6842"
"67.6000","1.1239","0.6846"
"67.8000","1.1275","0.6869"
"68.0000","1.1308","0.6878"
"68.2000","1.1339","0.6887"
"68.4000","1.1374","0.6908"
"68.6000","1.1406","0.6912"
"68.8000","1.1441","0.6931"
"69.0000","1.1474","0.6941"
"69.2000","1.1506","0.6953"
"69.4000","1.1541","0.6974"
"69.6000","1.1576","0.6994"
"69.8000","1.1607","0.6998"
"70.0000","1.1641","0.7013"
"70.2000","1.1673","0.7021"
"70.4000","1.1706","0.7033"
"70.6000","1.1744","0.7068"
"70.8000","1.1772","0.7063"
"71.0000","1.1808","0.7088"
"71.2000","1.1840","0.7089"
"71.4000","1.1872","0.7105"
"71.6000","1.1913","0.7146"
"71.8000","1.1937","0.7126"
"72.0000","1.1975","0.7159"
"72.2000","1.2008","0.7164"
"72.4000","1.2039","0.7178"
"72.6000","1.2079","0.7213"
"72.8000","1.2104","0.7199"
"73.0000","1.2142","0.7237"
"73.2000","1.2173","0.7236"
"73.4000","1.2204","0.7253"
"73.6000","1.2246","0.7284"
"73.8000","1.2270","0.7270"
"74.0000","1.2309","0.7306"
"74.2000","1.2340","0.7309"
"74.4000","1.2371","0.7315"
"74.6000","1.2410","0.7346"
"74.8000","1.2437","0.7341"
"75.0000","1.2478","0.7375"
"75.2000","1.2508","0.7375"
"75.4000","1.2538","0.7382"
"75.6000","1.2576","0.7409"
"75.8000","1.2605","0.7411"
"76.0000","1.2642","0.7434"
"76.2000","1.2674","0.7441"
"76.4000","1.2706","0.7450"
"76.6000","1.2741","0.7467"
"76.8000","1.2774","0.7476"
"77.0000","1.2808","0.7501"
"77.2000","1.2841","0.7510"
"77.4000","1.2873","0.7522"
"77.6000","1.2907","0.7536"
"77.8000","1.2943","0.7563"
"78.0000","1.2974","0.7568"
"78.2000","1.3008","0.7586"
"78.4000","1.3040","0.7594"
"78.6000","1.3074","0.7613"
"78.8000","1.3110","0.7639"
"79.0000","1.3138","0.7634"
"79.2000","1.3173","0.7656"
"79.4000","1.3208","0.7667"
"79.6000","1.3238","0.7680"
"79.8000","1.3278","0.7708"
"80.0000","1.3304","0.7699"
"80.2000","1.3340","0.7728"
"80.4000","1.3373","0.7733"
"80.6000","1.3405","0.7749"
"80.8000","1.3447","0.7791"
"81.0000","1.3471","0.7772"
"81.2000","1.3508","0.7806"
"81.4000","1.3541","0.7812"
"81.6000","1.3571","0.7821"
"81.8000","1.3613","0.7861"
"82.0000","1.3637","0.7847"
"82.2000","1.3675","0.7874"
"82.4000","1.3707","0.7875"
"82.6000","1.3737","0.7886"
"82.8000","1.3779","0.7926"
"83.0000","1.3804","0.7911"
"83.2000","1.3842","0.7945"
"83.4000","1.3874","0.7953"
"83.6000","1.3905","0.7961"
"83.8000","1.3943","0.7997"
"84.0000","1.3972","0.7998"
"84.2000","1.4009","0.8029"
"84.4000","1.4041","0.8036"
"84.6000","1.4071","0.8045"
"84.8000","1.4109","0.8072"
"85.0000","1.4139","0.8078"
"85.2000","1.4175","0.8107"
"85.4000","1.4208","0.8118"
"85.6000","1.4238","0.8125"
"85.8000","1.4274","0.8144"
"86.0000","1.4308","0.8159"
"86.2000","1.4341","0.8176"
"86.4000","1.4374","0.8187"
"86.6000","1.4406","0.8196"
"86.8000","1.4440","0.8218"
"87.0000","1.4477","0.8236"
"87.2000","1.4506","0.8236"
"87.4000","1.4541","0.8255"
"87.6000","1.4574","0.8268"
"87.8000","1.4606","0.8283"
"88.0000","1.4645","0.8310"
"88.2000","1.4671","0.8298"
"88.4000","1.4707","0.8325"
"88.6000","1.4741","0.8336"
"88.8000","1.4771","0.8351"
"89.0000","1.4813","0.8389"
"89.2000","1.4836","0.8367"
"89.4000","1.4874","0.8399"
"89.6000","1.4909","0.8414"
"89.8000","1.4938","0.8422"
"90.0000","1.4979","0.8459"
"90.2000","1.5003","0.8443"
"90.4000","1.5041","0.8477"
"90.6000","1.5075","0.8488"
"90.8000","1.5104","0.8497"
"91.0000","1.5145","0.8535"
"91.2000","1.5170","0.8517"
"91.4000","1.5208","0.8553"
"91.6000","1.5242","0.8567"
"91.8000","1.5271","0.8571"
"92.0000","1.5311","0.8602"
"92.2000","1.5337","0.8592"
"92.4000","1.5375","0.8626"
"92.6000","1.5408","0.8633"
"92.8000","1.5438","0.8640"
"93.0000","1.5477","0.8674"
"93.2000","1.5505","0.8666"
"93.4000","1.5542","0.8701"
"93.6000","1.5574","0.8706"
"93.8000","1.5605","0.8711"
"94.0000","1.5642","0.8737"
"94.2000","1.5673","0.8747"
"94.4000","1.5708","0.8770"
"94.6000","1.5740","0.8782"
"94.8000","1.5772","0.8790"
"95.0000","1.5807","0.8815"
"95.2000","1.5843","0.8839"
"95.4000","1.5874","0.8853"
"95.6000","1.5908","0.8862"
"95.8000","1.5940","0.8872"
"96.0000","1.5973","0.8884"
"96.2000","1.6011","0.8914"
"96.4000","1.6039","0.8912"
"96.6000","1.6074","0.8932"
"96.8000","1.6107","0.8935"
"97.0000","1.6140","0.8954"
"97.2000","1.6178","0.8988"
"97.4000","1.6204","0.8974"
"97.6000","1.6240","0.9001"
"97.8000","1.6275","0.9016"
"98.0000","1.6305","0.9028"
"98.2000","1.6345","0.9063"
"98.4000","1.6371","0.9045"
"98.6000","1.6407","0.9075"
"98.8000","1.6442","0.9087"
"99.0000","1.6471","0.9095"
"99.2000","1.6513","0.9134"
"99.4000","1.6537","0.9115"
"99.6000","1.6574","0.9151"
"99.8000","1.6609","0.9164"
"100.0000","1.6637","0.9167"
"100.2000","1.6678","0.9207"
"100.4000","1.6704","0.9196"
"100.6000","1.6741","0.9226"
"100.8000","1.6776","0.9245"
"101.0000","1.6804","0.9242"
"101.2000","1.6844","0.9280"
"101.4000","1.6872","0.9276"
"101.6000","1.6908","0.9304"
"101.8000","1.6942","0.9317"
"102.0000","1.6971","0.9322"
"102.2000","1.7009","0.9350"
"102.4000","1.7040","0.9354"
"102.6000","1.7075","0.9379"
"102.8000","1.7107","0.9389"
"103.0000","1.7138","0.9392"
"103.2000","1.7175","0.9429"
"103.4000","1.7208","0.9439"
"103.6000","1.7240","0.9457"
"103.8000","1.7274","0.9470"
"104.0000","1.7306","0.9483"
"104.2000","1.7341","0.9502"
"104.4000","1.7376","0.9526"
"104.6000","1.7406","0.9532"
"104.8000","1.7440","0.9550"
"105.0000","1.7475","0.9568"
"105.2000","1.7507","0.9580"
"105.4000","1.7544","0.9606"
"105.6000","1.7572","0.9601"
"105.8000","1.7606","0.9621"
"106.0000","1.7643","0.9645"
"106.2000","1.7671","0.9649"
"106.4000","1.7712","0.9691"
"106.6000","1.7738","0.9675"
"106.8000","1.7774","0.9702"
"107.0000","1.7810","0.9725"
"107.2000","1.7838","0.9723"
"107.4000","1.7878","0.9766"
"107.6000","1.7904","0.9752"
"107.8000","1.7939","0.9780"
"108.0000","1.7976","0.9803"
"108.2000","1.8004","0.9803"
"108.4000","1.8045","0.9841"
"108.6000","1.8071","0.9834"
"108.8000","1.8106","0.9856"
"109.0000","1.8142","0.9875"
"109.2000","1.8170","0.9877"
"109.4000","1.8211","0.9920"
"109.6000","1.8239","0.9914"
"109.8000","1.8274","0.9938"
"110.0000","1.8309","0.9960"
"110.2000","1.8338","0.9967"
"110.4000","1.8376","1.0003"
"110.6000","1.8406","1.0006"
"110.8000","1.8441","1.0034"
"111.0000","1.8475","1.0046"
"111.2000","1.8505","1.0051"
"111.4000","1.8542","1.0079"
"111.6000","1.8574","1.0092"
"111.8000","1.8607","1.0107"
"112.0000","1.8640","1.0118"
"112.2000","1.8673","1.0135"
"112.4000","1.8708","1.0152"
"112.6000","1.8742","1.0178"
"112.8000","1.8773","1.0184"
"113.0000","1.8807","1.0202"
"113.2000","1.8841","1.0219"
"113.4000","1.8873","1.0236"
"113.6000","1.8909","1.0256"
"113.8000","1.8939","1.0256"
"114.0000","1.8973","1.0273"
"114.2000","1.9010","1.0301"
"114.4000","1.9039","1.0305"
"114.6000","1.9076","1.0334"
"114.8000","1.9105","1.0328"
"115.0000","1.9139","1.0357"
"115.2000","1.9178","1.0386"
"115.4000","1.9205","1.0383"
"115.6000","1.9244","1.0429"
"115.8000","1.9272","1.0419"
"116.0000","1.9306","1.0445"
"116.2000","1.9344","1.0479"
"116.4000","1.9371","1.0475"
"116.6000","1.9411","1.0513"
"116.8000","1.9438","1.0501"
"117.0000","1.9472","1.0522"
"117.2000","1.9510","1.0550"
"117.4000","1.9536","1.0546"
"117.6000","1.9577","1.0584"
"117.8000","1.9605","1.0576"
"118.0000","1.9639","1.0594"
"118.2000","1.9677","1.0617"
"118.4000","1.9703","1.0612"
"118.6000","1.9744","1.0654"
"118.8000","1.9774","1.0655"
"119.0000","1.9806","1.0673"
"119.2000","1.9842","1.0695"
"119.4000","1.9871","1.0695"
"119.6000","1.9910","1.0731"
"119.8000","1.9940","1.0742"
"120.0000","1.9974","1.0761"
"120.2000","2.0007","1.0773"
"120.4000","2.0038","1.0783"
"120.6000","2.0075","1.0819"
"120.8000","2.0108","1.0827"
"121.0000","2.0140","1.0841"
"121.2000","2.0173","1.0858"
"121.4000","2.0208","1.0881"
"121.6000","2.0240","1.0892"
"121.8000","2.0275","1.0915"
"122.0000","2.0306","1.0920"
"122.2000","2.0340","1.0938"
"122.4000","2.0377","1.0971"
"122.6000","2.0406","1.0973"
"122.8000","2.0442","1.0997"
"123.0000","2.0472","1.0997"
"123.2000","2.0506","1.1021"
"123.4000","2.0545","1.1052"
"123.6000","2.0571","1.1047"
"123.8000","2.0609","1.1077"
"124.0000","2.0638","1.1072"
"124.2000","2.0672","1.1091"
"124.4000","2.0712","1.1121"
"124.6000","2.0737","1.1112"
"124.8000","2.0777","1.1150"
"125.0000","2.0805","1.1141"
"125.2000","2.0839","1.1166"
"125.4000","2.0878","1.1198"
"125.6000","2.0903","1.1185"
"125.8000","2.0944","1.1234"
"126.0000","2.0972","1.1224"
"126.2000","2.1005","1.1246"
"126.4000","2.1044","1.1275"
"126.6000","2.1070","1.1265"
"126.8000","2.1111","1.1309"
"127.0000","2.1139","1.1303"
"127.2000","2.1173","1.1323"
"127.4000","2.1209","1.1345"
"127.6000","2.1237","1.1344"
"127.8000","2.1277","1.1384"
"128.0000","2.1307","1.1388"
"128.2000","2.1340","1.1407"
"128.4000","2.1375","1.1424"
"128.6000","2.1405","1.1432"
"128.8000","2.1443","1.1465"
"129.0000","2.1475","1.1473"
"129.2000","2.1506","1.1484"
"129.4000","2.1540","1.1498"
"129.6000","2.1573","1.1512"
"129.8000","2.1608","1.1533"
"130.0000","2.1641","1.1549"
"130.2000","2.1673","1.1558"
"130.4000","2.1707","1.1582"
"130.6000","2.1743","1.1598"
"130.8000","2.1772","1.1601"
"131.0000","2.1809","1.1633"
"131.2000","2.1839","1.1636"
"131.4000","2.1872","1.1651"
"131.6000","2.1911","1.1683"
"131.8000","2.1939","1.1681"
"132.0000","2.1976","1.1712"
"132.2000","2.2005","1.1708"
"132.4000","2.2039","1.1728"
"132.6000","2.2079","1.1766"
"132.8000","2.2104","1.1755"
"133.0000","2.2143","1.1789"
"133.2000","2.2172","1.1785"
"133.4000","2.2206","1.1807"
"133.6000","2.2245","1.1840"
"133.8000","2.2271","1.1829"
"134.0000","2.2310","1.1872"
"134.2000","2.2339","1.1863"
"134.4000","2.2372","1.1883"
"134.6000","2.2412","1.1920"
"134.8000","2.2437","1.1903"
"135.0000","2.2478","1.1955"
"135.2000","2.2505","1.1943"
"135.4000","2.2539","1.1962"
"135.6000","2.2577","1.1997"
"135.8000","2.2604","1.1987"
"136.0000","2.2644","1.2031"
"136.2000","2.2674","1.2034"
"136.4000","2.2706","1.2048"
"136.6000","2.2743","1.2074"
"136.8000","2.2771","1.2071"
"137.0000","2.2810","1.2108"
"137.2000","2.2841","1.2110"
"137.4000","2.2873","1.2124"
"137.6000","2.2906","1.2133"
"137.8000","2.2939","1.2146"
"138.0000","2.2975","1.2172"
"138.2000","2.3008","1.2188"
"138.4000","2.3039","1.2193"
"138.6000","2.3074","1.2216"
"138.8000","2.3108","1.2233"
"139.0000","2.3140","1.2243"
"139.2000","2.3174","1.2261"
"139.4000","2.3207","1.2269"
"139.6000","2.3240","1.2288"
"139.8000","2.3277","1.2316"
"140.0000","2.3306","1.2314"
"140.2000","2.3341","1.2333"
"140.4000","2.3373","1.2350"
"140.6000","2.3406","1.2374"
"140.8000","2.3445","1.2412"
"141.0000","2.3472","1.2401"
"141.2000","2.3507","1.2428"
"141.4000","2.3540","1.2441"
"141.6000","2.3572","1.2460"
"141.8000","2.3612","1.2494"
"142.0000","2.3637","1.2479"
"142.2000","2.3675","1.2510"
"142.4000","2.3707","1.2516"
"142.6000","2.3739","1.2531"
"142.8000","2.3778","1.2568"
"143.0000","2.3804","1.2556"
"143.2000","2.3841","1.2593"
"143.4000","2.3873","1.2602"
"143.6000","2.3905","1.2613"
"143.8000","2.3945","1.2653"
"144.0000","2.3971","1.2641"
"144.2000","2.4009","1.2675"
"144.4000","2.4041","1.2680"
"144.6000","2.4072","1.2695"
"144.8000","2.4109","1.2721"
"145.0000","2.4138","1.2723"
"145.2000","2.4177","1.2754"
"145.4000","2.4208","1.2756"
"145.6000","2.4239","1.2770"
"145.8000","2.4275","1.2794"
"146.0000","2.4306","1.2801"
"146.2000","2.4341","1.2833"
"146.4000","2.4373","1.2842"
"146.6000","2.4406","1.2859"
"146.8000","2.4441","1.2884"
"147.0000","2.4474","1.2896"
"147.2000","2.4508","1.2917"
"147.4000","2.4542","1.2937"
"147.6000","2.4573","1.2944"
"147.8000","2.4606","1.2958"
"148.0000","2.4643","1.2984"
"148.2000","2.4674","1.2993"
"148.4000","2.4707","1.3008"
"148.6000","2.4740","1.3017"
"148.8000","2.4773","1.3035"
"149.0000","2.4811","1.3061"
"149.2000","2.4838","1.3056"
"149.4000","2.4874","1.3082"
"149.6000","2.4908","1.3094"
"149.8000","2.4939","1.3107"
"150.0000","2.4979","1.3148"
"150.2000","2.5004","1.3129"
"150.4000","2.5042","1.3171"
"150.6000","2.5074","1.3178"
"150.8000","2.5105","1.3190"
"151.0000","2.5146","1.3234"
"151.2000","2.5171","1.3214"
"151.4000","2.5208","1.3249"
"151.6000","2.5241","1.3262"
"151.8000","2.5271","1.3267"
"152.0000","2.5312","1.3306"
"152.2000","2.5337","1.3291"
"152.4000","2.5375","1.3331"
"152.6000","2.5408","1.3344"
"152.8000","2.5438","1.3347"
"153.0000","2.5478","1.3391"
"153.2000","2.5504","1.3382"
"153.4000","2.5542","1.3419"
"153.6000","2.5575","1.3425"
"153.8000","2.5605","1.3436"
"154.0000","2.5644","1.3472"
"154.2000","2.5672","1.3468"
"154.4000","2.5709","1.3497"
"154.6000","2.5740","1.3503"
"154.8000","2.5772","1.3518"
"155.0000","2.5808","1.3547"
"155.2000","2.5840","1.3556"
"155.4000","2.5875","1.3590"
"155.6000","2.5907","1.3602"
"155.8000","2.5939","1.3616"
"156.0000","2.5974","1.3649"
"156.2000","2.6009","1.3668"
"156.4000","2.6040","1.3677"
"156.6000","2.6074","1.3697"
"156.8000","2.6107","1.3708"
"157.0000","2.6141","1.3729"
"157.2000","2.6179","1.3758"
"157.4000","2.6205","1.3749"
"157.6000","2.6240","1.3774"
"157.8000","2.6274","1.3790"
"158.0000","2.6306","1.3800"
"158.2000","2.6345","1.3842"
"158.4000","2.6371","1.3827"
"158.6000","2.6407","1.3862"
"158.8000","2.6441","1.3874"
"159.0000","2.6472","1.3883"
"159.2000","2.6513","1.3926"
"159.4000","2.6537","1.3910"
"159.6000","2.6574","1.3948"
"159.8000","2.6607","1.3958"
"160.0000","2.6638","1.3972"
"160.2000","2.6678","1.4018"
"160.4000","2.6703","1.4001"
"160.6000","2.6744","1.4049"
"160.8000","2.6778","1.4069"
"161.0000","2.6803","1.4053"
"161.2000","2.6843","1.4096"
"161.4000","2.6871","1.4089"
"161.6000","2.6908","1.4127"
"161.8000","2.6941","1.4139"
"162.0000","2.6971","1.4139"
"162.2000","2.7011","1.4186"
"162.4000","2.7038","1.4180"
"162.6000","2.7075","1.4217"
"162.8000","2.7109","1.4232"
"163.0000","2.7138","1.4236"
"163.2000","2.7176","1.4271"
"163.4000","2.7206","1.4280"
"163.6000","2.7242","1.4307"
"163.8000","2.7274","1.4321"
"164.0000","2.7305","1.4328"
"164.2000","2.7342","1.4363"
"164.4000","2.7375","1.4385"
"164.6000","2.7406","1.4391"
"164.8000","2.7441","1.4416"
"165.0000","2.7473","1.4432"
"165.2000","2.7508","1.4454"
"165.4000","2.7542","1.4477"
"165.6000","2.7573","1.4487"
"165.8000","2.7607","1.4511"
"166.0000","2.7641","1.4528"
"166.2000","2.7673","1.4543"
"166.4000","2.7712","1.4586"
"166.6000","2.7738","1.4575"
"166.8000","2.7773","1.4600"
"167.0000","2.7808","1.4624"
"167.2000","2.7839","1.4631"
"167.4000","2.7879","1.4673"
"167.6000","2.7904","1.4659"
"167.8000","2.7940","1.4689"
"168.0000","2.7975","1.4706"
"168.2000","2.8005","1.4716"
"168.4000","2.8045","1.4766"
"168.6000","2.8070","1.4751"
"168.8000","2.8107","1.4792"
"169.0000","2.8143","1.4818"
"169.2000","2.8171","1.4826"
"169.4000","2.8212","1.4876"
"169.6000","2.8237","1.4857"
"169.8000","2.8273","1.4889"
"170.0000","2.8309","1.4916"
"170.2000","2.8337","1.4915"
"170.4000","2.8377","1.4957"
"170.6000","2.8405","1.4953"
"170.8000","2.8441","1.4984"
"171.0000","2.8476","1.5002"
"171.2000","2.8504","1.5002"
"171.4000","2.8544","1.5046"
"171.6000","2.8572","1.5040"
"171.8000","2.8608","1.5074"
"172.0000","2.8641","1.5086"
"172.2000","2.8671","1.5095"
"172.4000","2.8708","1.5120"
"172.6000","2.8739","1.5127"
"172.8000","2.8774","1.5148"
"173.0000","2.8807","1.5166"
"173.2000","2.8839","1.5176"
"173.4000","2.8874","1.5201"
"173.6000","2.8909","1.5229"
"173.8000","2.8940","1.5238"
"174.0000","2.8973","1.5258"
"174.2000","2.9007","1.5278"
"174.4000","2.9040","1.5295"
"174.6000","2.9076","1.5324"
"174.8000","2.9106","1.5327"
"175.0000","2.9140","1.5350"
"175.2000","2.9175","1.5364"
"175.4000","2.9205","1.5371"
"175.6000","2.9243","1.5403"
"175.8000","2.9271","1.5396"
"176.0000","2.9306","1.5421"
"176.2000","2.9342","1.5441"
"176.4000","2.9372","1.5449"
"176.6000","2.9411","1.5488"
"176.8000","2.9438","1.5473"
"177.0000","2.9473","1.5502"
"177.2000","2.9511","1.5535"
"177.4000","2.9538","1.5533"
"177.6000","2.9578","1.5585"
"177.8000","2.9604","1.5564"
"178.0000","2.9640","1.5600"
"178.2000","2.9677","1.5629"
"178.4000","2.9704","1.5622"
"178.6000","2.9745","1.5676"
"178.8000","2.9772","1.5663"
"179.0000","2.9807","1.5690"
"179.2000","2.9842","1.5709"
"179.4000","2.9871","1.5714"
"179.6000","2.9911","1.5758"
"179.8000","2.9940","1.5756"
"180.0000","2.9975","1.5784"
"180.2000","3.0008","1.5799"
"180.4000","3.0038","1.5799"
"180.6000","3.0076","1.5839"
"180.8000","3.0107","1.5849"
"181.0000","3.0141","1.5870"
"181.2000","3.0174","1.5885"
"181.4000","3.0206","1.5890"
"181.6000","3.0241","1.5914"
"181.8000","3.0274","1.5929"
"182.0000","3.0307","1.5946"
"182.2000","3.0340","1.5963"
"182.4000","3.0374","1.5985"
"182.6000","3.0407","1.6006"
"182.8000","3.0442","1.6031"
"183.0000","3.0473","1.6037"
"183.2000","3.0507","1.6059"
"183.4000","3.0542","1.6082"
"183.6000","3.0572","1.6088"
"183.8000","3.0609","1.6120"
"184.0000","3.0638","1.6119"
"184.2000","3.0672","1.6140"
"184.4000","3.0710","1.6169"
"184.6000","3.0738","1.6170"
"184.8000","3.0777","1.6209"
"185.0000","3.0804","1.6206"
"185.2000","3.0839","1.6230"
"185.4000","3.0877","1.6266"
"185.6000","3.0905","1.6262"
"185.8000","3.0945","1.6310"
"186.0000","3.0971","1.6297"
"186.2000","3.1006","1.6323"
"186.4000","3.1044","1.6358"
"186.6000","3.1071","1.6352"
"186.8000","3.1112","1.6406"
"187.0000","3.1138","1.6390"
"187.2000","3.1173","1.6421"
"187.4000","3.1210","1.6452"
"187.6000","3.1237","1.6444"
"187.8000","3.1277","1.6494"
"188.0000","3.1306","1.6489"
"188.2000","3.1340","1.6519"
"188.4000","3.1376","1.6544"
"188.6000","3.1404","1.6541"
"188.8000","3.1444","1.6582"
"189.0000","3.1473","1.6582"
"189.2000","3.1507","1.6609"
"189.4000","3.1541","1.6626"
"189.6000","3.1572","1.6636"
"189.8000","3.1609","1.6667"
"190.0000","3.1640","1.6675"
"190.2000","3.1673","1.6691"
"190.4000","3.1707","1.6715"
"190.6000","3.1739","1.6729"
"190.8000","3.1775","1.6755"
"191.0000","3.1809","1.6780"
"191.2000","3.1840","1.6784"
"191.4000","3.1873","1.6808"
"191.6000","3.1909","1.6835"
"191.8000","3.1940","1.6844"
"192.0000","3.1976","1.6872"
"192.2000","3.2006","1.6876"
"192.4000","3.2039","1.6896"
"192.6000","3.2077","1.6928"
"192.8000","3.2105","1.6926"
"193.0000","3.2143","1.6961"
"193.2000","3.2172","1.6958"
"193.4000","3.2206","1.6984"
"193.6000","3.2245","1.7018"
"193.8000","3.2271","1.7009"
"194.0000","3.2309","1.7044"
"194.2000","3.2338","1.7045"
"194.4000","3.2373","1.7073"
"194.6000","3.2411","1.7104"
"194.8000","3.2437","1.7092"
"195.0000","3.2478","1.7147"
"195.2000","3.2505","1.7131"
"195.4000","3.2539","1.7162"
"195.6000","3.2577","1.7200"
"195.8000","3.2603","1.7195"
"196.0000","3.2644","1.7248"
"196.2000","3.2672","1.7239"
"196.4000","3.2706","1.7270"
"196.6000","3.2743","1.7301"
"196.8000","3.2770","1.7297"
"197.0000","3.2809","1.7337"
"197.2000","3.2840","1.7340"
"197.4000","3.2873","1.7365"
"197.6000","3.2909","1.7389"
"197.8000","3.2938","1.7391"
"198.0000","3.2977","1.7436"
"198.2000","3.3007","1.7448"
"198.4000","3.3040","1.7467"
"198.6000","3.3074","1.7487"
"198.8000","3.3106","1.7503"
"199.0000","3.3142","1.7529"
"199.2000","3.3174","1.7549"
"199.4000","3.3206","1.7560"
"199.6000","3.3241","1.7581"
"199.8000","3.3274","1.7605"
"200.0000","3.3307","1.7630"
"200.2000","3.3342","1.7657"
"200.4000","3.3372","1.7664"
"200.6000","3.3407","1.7693"
"200.8000","3.3443","1.7728"
"201.0000","3.3473","1.7734"
"201.2000","3.3508","1.7757"
"201.4000","3.3538","1.7761"
"201.6000","3.3572","1.7787"
"201.8000","3.3611","1.7823"
"202.0000","3.3638","1.7816"
"202.2000","3.3676","1.7855"
"202.4000","3.3705","1.7850"
"202.6000","3.3739","1.7878"
"202.8000","3.3778","1.7921"
"203.0000","3.3804","1.7911"
"203.2000","3.3842","1.7956"
"203.4000","3.3872","1.7952"
"203.6000","3.3906","1.7988"
"203.8000","3.3946","1.8038"
"204.0000","3.3970","1.8020"
"204.2000","3.4009","1.8064"
"204.4000","3.4040","1.8071"
"204.6000","3.4071","1.8085"
"204.8000","3.4112","1.8135"
"205.0000","3.4136","1.8118"
"205.2000","3.4177","1.8170"
"205.4000","3.4207","1.8175"
"205.6000","3.4239","1.8197"
"205.8000","3.4276","1.8228"
"206.0000","3.4304","1.8228"
"206.2000","3.4344","1.8276"
"206.4000","3.4373","1.8275"
"206.6000","3.4406","1.8297"
"206.8000","3.4442","1.8319"
"207.0000","3.4472","1.8324"
"207.2000","3.4509","1.8361"
"207.4000","3.4542","1.8377"
"207.6000","3.4572","1.8388"
"207.8000","3.4608","1.8421"
"208.0000","3.4641","1.8443"
"208.2000","3.4675","1.8468"
"208.4000","3.4708","1.8483"
"208.6000","3.4739","1.8491"
"208.8000","3.4774","1.8517"
"209.0000","3.4809","1.8538"
"209.2000","3.4840","1.8545"
"209.4000","3.4875","1.8568"
"209.6000","3.4906","1.8577"
"209.8000","3.4940","1.8594"
"210.0000","3.4977","1.8629"
"210.2000","3.5005","1.8628"
"210.4000","3.5041","1.8657"
"210.6000","3.5072","1.8667"
"210.8000","3.5106","1.8682"
"211.0000","3.5146","1.8729"
"211.2000","3.5170","1.8707"
"211.4000","3.5208","1.8740"
"211.6000","3.5240","1.8753"
"211.8000","3.5272","1.8770"
"212.0000","3.5313","1.8818"
"212.2000","3.5337","1.8800"
"212.4000","3.5376","1.8842"
"212.6000","3.5406","1.8846"
"212.8000","3.5438","1.8860"
"213.0000","3.5479","1.8904"
"213.2000","3.5503","1.8884"
"213.4000","3.5541","1.8922"
"213.6000","3.5573","1.8933"
"213.8000","3.5605","1.8948"
"214.0000","3.5644","1.8987"
"214.2000","3.5671","1.8977"
"214.4000","3.5710","1.9021"
"214.6000","3.5741","1.9026"
"214.8000","3.5773","1.9039"
"215.0000","3.5810","1.9078"
"215.2000","3.5838","1.9073"
"215.4000","3.5876","1.9113"
"215.6000","3.5907","1.9122"
"215.8000","3.5939","1.9130"
"216.0000","3.5974","1.9161"
"216.2000","3.6007","1.9179"
"216.4000","3.6041","1.9205"
"216.6000","3.6074","1.9220"
"216.8000","3.6106","1.9236"
"217.0000","3.6135","1.9232"
"217.2000","3.6174","1.9277"
"217.4000","3.6209","1.9301"
"217.6000","3.6240","1.9310"
"217.8000","3.6274","1.9332"
"218.0000","3.6306","1.9350"
"218.2000","3.6343","1.9385"
"218.4000","3.6372","1.9383"
"218.6000","3.6407","1.9411"
"218.8000","3.6440","1.9430"
"219.0000","3.6472","1.9449"
"219.2000","3.6511","1.9485"
"219.4000","3.6538","1.9476"
"219.6000","3.6574","1.9506"
"219.8000","3.6607","1.9520"
"220.0000","3.6638","1.9539"
"220.2000","3.6679","1.9593"
"220.4000","3.6704","1.9574"
"220.6000","3.6739","1.9607"
"220.8000","3.6776","1.9647"
"221.0000","3.6805","1.9649"
"221.2000","3.6845","1.9700"
"221.4000","3.6871","1.9690"
"221.6000","3.6909","1.9728"
"221.8000","3.6941","1.9741"
"222.0000","3.6971","1.9751"
"222.2000","3.7011","1.9803"
"222.4000","3.7037","1.9791"
"222.6000","3.7075","1.9838"
"222.8000","3.7108","1.9852"
"223.0000","3.7138","1.9860"
"223.2000","3.7177","1.9900"
"223.4000","3.7205","1.9900"
"223.6000","3.7243","1.9939"
"223.8000","3.7275","1.9951"
"224.0000","3.7304","1.9956"
"224.2000","3.7340","1.9982"
"224.4000","3.7375","2.0015"
"224.6000","3.7409","2.0043"
"224.8000","3.7440","2.0054"
"225.0000","3.7472","2.0074"
"225.2000","3.7507","2.0099"
"225.4000","3.7541","2.0119"
"225.6000","3.7575","2.0144"
"225.8000","3.7607","2.0161"
"226.0000","3.7640","2.0174"
"226.2000","3.7673","2.0189"
"226.4000","3.7710","2.0222"
"226.6000","3.7740","2.0230"
"226.8000","3.7774","2.0247"
"227.0000","3.7807","2.0265"
"227.2000","3.7840","2.0286"
"227.4000","3.7878","2.0328"
"227.6000","3.7905","2.0317"
"227.8000","3.7941","2.0351"
"228.0000","3.7975","2.0381"
"228.2000","3.8005","2.0392"
"228.4000","3.8045","2.0438"
"228.6000","3.8070","2.0426"
"228.8000","3.8107","2.0468"
"229.0000","3.8141","2.0489"
"229.2000","3.8172","2.0498"
"229.4000","3.8213","2.0546"
"229.6000","3.8236","2.0524"
"229.8000","3.8274","2.0562"
"230.0000","3.8308","2.0583"
"230.2000","3.8338","2.0593"
"230.4000","3.8379","2.0653"
"230.6000","3.8403","2.0635"
"230.8000","3.8442","2.0682"
"231.0000","3.8475","2.0693"
"231.2000","3.8504","2.0706"
"231.4000","3.8544","2.0744"
"231.6000","3.8572","2.0740"
"231.8000","3.8610","2.0789"
"232.0000","3.8641","2.0792"
"232.2000","3.8672","2.0807"
"232.4000","3.8710","2.0849"
"232.6000","3.8739","2.0848"
"232.8000","3.8775","2.0885"
"233.0000","3.8808","2.0901"
"233.2000","3.8838","2.0914"
"233.4000","3.8875","2.0945"
"233.6000","3.8907","2.0960"
"233.8000","3.8941","2.0984"
"234.0000","3.8973","2.0998"
"234.2000","3.9006","2.1016"
"234.4000","3.9040","2.1047"
"234.6000","3.9076","2.1081"
"234.8000","3.9107","2.1091"
"235.0000","3.9140","2.1114"
"235.2000","3.9174","2.1129"
"235.4000","3.9207","2.1154"
"235.6000","3.9244","2.1192"
"235.8000","3.9271","2.1189"
"236.0000","3.9307","2.1222"
"236.2000","3.9341","2.1242"
"236.4000","3.9372","2.1256"
"236.6000","3.9411","2.1301"
"236.8000","3.9437","2.1292"
"237.0000","3.9473","2.1324"
"237.2000","3.9508","2.1345"
"237.4000","3.9538","2.1356"
"237.6000","3.9580","2.1390"
"237.8000","3.9603","2.1365"
"238.0000","3.9641","2.1412"
"238.2000","3.9675","2.1434"
"238.4000","3.9705","2.1445"
"238.6000","3.9746","2.1484"
"238.8000","3.9770","2.1472"
"239.0000","3.9808","2.1509"
"239.2000","3.9842","2.1531"
"239.4000","3.9871","2.1538"
"239.6000","3.9912","2.1602"
"239.8000","3.9937","2.1582"
"240.0000","3.9974","2.1629"
"240.2000","4.0009","2.1660"
"240.4000","4.0037","2.1663"
"240.6000","4.0078","2.1713"
"240.8000","4.0105","2.1708"
"241.0000","4.0142","2.1744"
"241.2000","4.0175","2.1757"
"241.4000","4.0204","2.1740"
"241.6000","4.0243","2.1789"
"241.8000","4.0274","2.1801"
"242.0000","4.0308","2.1823"
"242.2000","4.0340","2.1841"
"242.4000","4.0371","2.1853"
"242.6000","4.0408","2.1887"
"242.8000","4.0441","2.1910"
"243.0000","4.0474","2.1926"
"243.2000","4.0507","2.1945"
"243.4000","4.0541","2.1970"
"243.6000","4.0573","2.1995"
"243.8000","4.0610","2.2033"
"244.0000","4.0639","2.2042"
"244.2000","4.0673","2.2072"
"244.4000","4.0708","2.2098"
"244.6000","4.0740","2.2116"
"244.8000","4.0777","2.2155"
"245.0000","4.0805","2.2151"
"245.2000","4.0840","2.2182"
"245.4000","4.0876","2.2217"
"245.6000","4.0905","2.2224"
"245.8000","4.0945","2.2274"
"246.0000","4.0970","2.2269"
"246.2000","4.1007","2.2307"
"246.4000","4.1043","2.2339"
"246.6000","4.1071","2.2342"
"246.8000","4.1112","2.2400"
"247.0000","4.1137","2.2378"
"247.2000","4.1173","2.2422"
"247.4000","4.1209","2.2456"
"247.6000","4.1237","2.2461"
"247.8000","4.1278","2.2523"
"248.0000","4.1304","2.2515"
"248.2000","4.1339","2.2549"
"248.4000","4.1376","2.2585"
"248.6000","4.1404","2.2589"
"248.8000","4.1445","2.2646"
"249.0000","4.1471","2.2642"
"249.2000","4.1507","2.2678"
"249.4000","4.1542","2.2704"
"249.6000","4.1570","2.2709"
"249.8000","4.1611","2.2761"
"250.0000","4.1640","2.2767"
"250.2000","4.1675","2.2803"
"250.4000","4.1708","2.2824"
"250.6000","4.1738","2.2841"
"250.8000","4.1775","2.2878"
"251.0000","4.1807","2.2895"
"251.2000","4.1841","2.2915"
"251.4000","4.1874","2.2936"
"251.6000","4.1907","2.2963"
"251.8000","4.1941","2.2993"
"252.0000","4.1975","2.3028"
"252.2000","4.2006","2.3047"
"252.4000","4.2040","2.3076"
"252.6000","4.2073","2.3098"
"252.8000","4.2106","2.3121"
"253.0000","4.2143","2.3157"
"253.2000","4.2171","2.3159"
"253.4000","4.2207","2.3200"
"253.6000","4.2243","2.3241"
"253.8000","4.2272","2.3245"
"254.0000","4.2309","2.3293"
"254.2000","4.2338","2.3299"
"254.4000","4.2373","2.3331"
"254.6000","4.2411","2.3366"
"254.8000","4.2438","2.3368"
"255.0000","4.2477","2.3420"
"255.2000","4.2504","2.3411"
"255.4000","4.2539","2.3446"
"255.6000","4.2578","2.3489"
"255.8000","4.2604","2.3490"
"256.0000","4.2645","2.3549"
"256.2000","4.2671","2.3541"
"256.4000","4.2706","2.3578"
"256.6000","4.2743","2.3624"
"256.8000","4.2770","2.3618"
"257.0000","4.2812","2.3681"
"257.2000","4.2838","2.3674"
"257.4000","4.2873","2.3710"
"257.6000","4.2909","2.3740"
"257.8000","4.2937","2.3745"
"258.0000","4.2978","2.3799"
"258.2000","4.3006","2.3801"
"258.4000","4.3040","2.3832"
"258.6000","4.3076","2.3864"
"258.8000","4.3104","2.3871"
"259.0000","4.3142","2.3917"
"259.2000","4.3174","2.3935"
"259.4000","4.3207","2.3955"
"259.6000","4.3241","2.3987"
"259.8000","4.3272","2.4006"
"260.0000","4.3308","2.4050"
"260.2000","4.3342","2.4073"
"260.4000","4.3373","2.4087"
"260.6000","4.3408","2.4113"
"260.8000","4.3439","2.4130"
"261.0000","4.3474","2.4160"
"261.2000","4.3508","2.4193"
"261.4000","4.3539","2.4209"
"261.6000","4.3574","2.4237"
"261.8000","4.3610","2.4271"
"262.0000","4.3639","2.4281"
"262.2000","4.3676","2.4314"
"262.4000","4.3705","2.4322"
"262.6000","4.3739","2.4351"
"262.8000","4.3777","2.4376"
"262.8410","4.3782","1.8196"
"262.8470","4.3783","1.4030"