File: DestructiveTests/Tensile/FLAX TENSILE.is_qtest_Exports/FLAX TENSILE_4.csv
Time,Displacement,Force
(s),(mm),(kN)
"0.0000","-0.0041","0.1262"
"0.3000","-0.0038","0.1287"
"0.6000","0.0039","0.1673"
"0.9000","0.0085","0.1904"
"1.2000","0.0130","0.2142"
"1.5000","0.0186","0.2425"
"1.8000","0.0229","0.2643"
"2.1000","0.0281","0.2903"
"2.4000","0.0335","0.3186"
"2.7000","0.0380","0.3401"
"3.0000","0.0434","0.3662"
"3.3000","0.0481","0.3894"
"3.6000","0.0531","0.4140"
"3.9000","0.0586","0.4405"
"4.2000","0.0631","0.4622"
"4.5000","0.0682","0.4875"
"4.8000","0.0732","0.5103"
"5.1000","0.0781","0.5337"
"5.4000","0.0834","0.5593"
"5.7000","0.0881","0.5806"
"6.0000","0.0931","0.6045"
"6.3000","0.0983","0.6293"
"6.6000","0.1031","0.6516"
"6.9000","0.1083","0.6770"
"7.2000","0.1133","0.6997"
"7.5000","0.1181","0.7228"
"7.8000","0.1233","0.7447"
"8.1000","0.1282","0.7675"
"8.4000","0.1332","0.7897"
"8.7000","0.1383","0.8144"
"9.0000","0.1431","0.8349"
"9.3000","0.1482","0.8585"
"9.6000","0.1533","0.8817"
"9.9000","0.1581","0.9026"
"10.2000","0.1632","0.9248"
"10.5000","0.1682","0.9465"
"10.8000","0.1730","0.9674"
"11.1000","0.1785","0.9910"
"11.4000","0.1830","1.0115"
"11.7000","0.1881","1.0327"
"12.0000","0.1933","1.0556"
"12.3000","0.1979","1.0742"
"12.6000","0.2038","1.1009"
"12.9000","0.2081","1.1178"
"13.2000","0.2131","1.1388"
"13.5000","0.2184","1.1615"
"13.8000","0.2228","1.1785"
"14.1000","0.2287","1.2045"
"14.4000","0.2329","1.2204"
"14.7000","0.2382","1.2429"
"15.0000","0.2434","1.2637"
"15.3000","0.2480","1.2809"
"15.6000","0.2535","1.3044"
"15.9000","0.2580","1.3213"
"16.2000","0.2633","1.3421"
"16.5000","0.2685","1.3629"
"16.8000","0.2730","1.3793"
"17.1000","0.2783","1.3996"
"17.4000","0.2830","1.4168"
"17.7000","0.2882","1.4380"
"18.0000","0.2932","1.4561"
"18.3000","0.2984","1.4745"
"18.6000","0.3033","1.4936"
"18.9000","0.3082","1.5108"
"19.2000","0.3132","1.5302"
"19.5000","0.3181","1.5457"
"19.8000","0.3236","1.5671"
"20.1000","0.3281","1.5827"
"20.4000","0.3331","1.5997"
"20.7000","0.3383","1.6175"
"21.0000","0.3429","1.6330"
"21.3000","0.3488","1.6547"
"21.6000","0.3530","1.6687"
"21.9000","0.3582","1.6868"
"22.2000","0.3633","1.7033"
"22.5000","0.3678","1.7166"
"22.8000","0.3737","1.7375"
"23.1000","0.3779","1.7502"
"23.4000","0.3832","1.7687"
"23.7000","0.3885","1.7852"
"24.0000","0.3930","1.7988"
"24.3000","0.3985","1.8181"
"24.6000","0.4030","1.8305"
"24.9000","0.4082","1.8488"
"25.2000","0.4135","1.8632"
"25.5000","0.4180","1.8757"
"25.8000","0.4233","1.8915"
"26.1000","0.4281","1.9058"
"26.4000","0.4332","1.9213"
"26.7000","0.4382","1.9362"
"27.0000","0.4433","1.9505"
"27.3000","0.4481","1.9645"
"27.6000","0.4532","1.9794"
"27.9000","0.4583","1.9934"
"28.2000","0.4631","2.0061"
"28.5000","0.4685","2.0215"
"28.8000","0.4730","2.0315"
"29.1000","0.4783","2.0470"
"29.4000","0.4833","2.0605"
"29.7000","0.4879","2.0712"
"30.0000","0.4937","2.0885"
"30.3000","0.4980","2.0968"
"30.6000","0.5033","2.1115"
"30.9000","0.5083","2.1238"
"31.2000","0.5129","2.1349"
"31.5000","0.5188","2.1504"
"31.8000","0.5229","2.1583"
"32.1000","0.5282","2.1720"
"32.4000","0.5334","2.1847"
"32.7000","0.5379","2.1936"
"33.0000","0.5435","2.2097"
"33.3000","0.5479","2.2180"
"33.6000","0.5533","2.2325"
"33.9000","0.5584","2.2439"
"34.2000","0.5632","2.2549"
"34.5000","0.5682","2.2669"
"34.8000","0.5730","2.2768"
"35.1000","0.5782","2.2894"
"35.4000","0.5833","2.3015"
"35.7000","0.5882","2.3131"
"36.0000","0.5931","2.3245"
"36.3000","0.5982","2.3360"
"36.6000","0.6032","2.3464"
"36.9000","0.6081","2.3570"
"37.2000","0.6136","2.3713"
"37.5000","0.6180","2.3790"
"37.8000","0.6233","2.3919"
"38.1000","0.6282","2.4024"
"38.4000","0.6329","2.4118"
"38.7000","0.6385","2.4257"
"39.0000","0.6429","2.4328"
"39.3000","0.6483","2.4465"
"39.6000","0.6532","2.4575"
"39.9000","0.6579","2.4663"
"40.2000","0.6637","2.4804"
"40.5000","0.6679","2.4876"
"40.8000","0.6734","2.5003"
"41.1000","0.6783","2.5095"
"41.4000","0.6829","2.5182"
"41.7000","0.6886","2.5325"
"42.0000","0.6930","2.5396"
"42.3000","0.6983","2.5517"
"42.6000","0.7032","2.5609"
"42.9000","0.7081","2.5706"
"43.2000","0.7133","2.5816"
"43.5000","0.7180","2.5902"
"43.8000","0.7232","2.6015"
"44.1000","0.7282","2.6107"
"44.4000","0.7333","2.6215"
"44.7000","0.7382","2.6302"
"45.0000","0.7432","2.6394"
"45.3000","0.7482","2.6490"
"45.6000","0.7531","2.6571"
"45.9000","0.7585","2.6679"
"46.2000","0.7631","2.6732"
"46.5000","0.7684","2.6840"
"46.8000","0.7732","2.6918"
"47.1000","0.7779","2.6977"
"47.4000","0.7837","2.7105"
"47.7000","0.7880","2.7150"
"48.0000","0.7935","2.7257"
"48.3000","0.7982","2.7332"
"48.6000","0.8028","2.7389"
"48.9000","0.8087","2.7504"
"49.2000","0.8128","2.7533"
"49.5000","0.8185","2.7644"
"49.8000","0.8233","2.7706"
"50.1000","0.8280","2.7763"
"50.4000","0.8336","2.7879"
"50.7000","0.8379","2.7911"
"51.0000","0.8433","2.7998"
"51.3000","0.8483","2.8078"
"51.6000","0.8532","2.8140"
"51.9000","0.8584","2.8205"
"52.2000","0.8630","2.8251"
"52.5000","0.8682","2.8323"
"52.8000","0.8732","2.8393"
"53.1000","0.8784","2.8466"
"53.4000","0.8833","2.8525"
"53.7000","0.8883","2.8590"
"54.0000","0.8932","2.8648"
"54.3000","0.8980","2.8708"
"54.6000","0.9034","2.8798"
"54.9000","0.9080","2.8850"
"55.2000","0.9135","2.8934"
"55.5000","0.9182","2.8979"
"55.8000","0.9229","2.9035"
"56.1000","0.9286","2.9131"
"56.4000","0.9329","2.9158"
"56.7000","0.9386","2.9264"
"57.0000","0.9431","2.9310"
"57.3000","0.9479","2.9372"
"57.6000","0.9536","2.9473"
"57.9000","0.9578","2.9501"
"58.2000","0.9635","2.9596"
"58.5000","0.9682","2.9643"
"58.8000","0.9731","2.9701"
"59.1000","0.9786","2.9786"
"59.4000","0.9829","2.9811"
"59.7000","0.9883","2.9884"
"60.0000","0.9932","2.9938"
"60.3000","0.9982","2.9999"
"60.6000","1.0034","3.0073"
"60.9000","1.0081","3.0105"
"61.2000","1.0132","3.0151"
"61.5000","1.0182","3.0194"
"61.8000","1.0234","3.0248"
"62.1000","1.0282","3.0285"
"62.4000","1.0334","3.0339"
"62.7000","1.0381","3.0366"
"63.0000","1.0431","3.0397"
"63.3000","1.0484","3.0462"
"63.6000","1.0530","3.0487"
"63.9000","1.0587","3.0558"
"64.2000","1.0630","3.0568"
"64.5000","1.0680","3.0595"
"64.8000","1.0734","3.0658"
"65.1000","1.0779","3.0668"
"65.4000","1.0837","3.0746"
"65.7000","1.0881","3.0761"
"66.0000","1.0930","3.0808"
"66.3000","1.0985","3.0881"
"66.6000","1.1028","3.0892"
"66.9000","1.1084","3.0972"
"67.2000","1.1131","3.1005"
"67.5000","1.1181","3.1058"
"67.8000","1.1235","3.1124"
"68.1000","1.1280","3.1138"
"68.4000","1.1334","3.1209"
"68.7000","1.1382","3.1251"
"69.0000","1.1432","3.1303"
"69.3000","1.1483","3.1361"
"69.6000","1.1532","3.1399"
"69.9000","1.1582","3.1462"
"70.2000","1.1631","3.1507"
"70.5000","1.1683","3.1573"
"70.8000","1.1732","3.1639"
"71.1000","1.1785","3.1726"
"71.4000","1.1832","3.1780"
"71.7000","1.1881","3.1839"
"72.0000","1.1934","3.1924"
"72.3000","1.1980","3.1972"
"72.6000","1.2036","3.2075"
"72.9000","1.2081","3.2116"
"73.2000","1.2131","3.2187"
"73.5000","1.2184","3.2281"
"73.8000","1.2230","3.2322"
"74.1000","1.2288","3.2437"
"74.4000","1.2331","3.2470"
"74.7000","1.2380","3.2533"
"75.0000","1.2435","3.2629"
"75.3000","1.2478","3.2657"
"75.6000","1.2536","3.2772"
"75.9000","1.2580","3.2811"
"76.2000","1.2632","3.2890"
"76.5000","1.2686","3.2977"
"76.8000","1.2730","3.3007"
"77.1000","1.2784","3.3087"
"77.4000","1.2832","3.3143"
"77.7000","1.2883","3.3219"
"78.0000","1.2934","3.3291"
"78.3000","1.2980","3.3337"
"78.6000","1.3033","3.3429"
"78.9000","1.3081","3.3486"
"79.2000","1.3134","3.3568"
"79.5000","1.3183","3.3639"
"79.8000","1.3234","3.3727"
"80.1000","1.3282","3.3784"
"80.4000","1.3331","3.3850"
"80.7000","1.3383","3.3934"
"81.0000","1.3430","3.3996"
"81.3000","1.3487","3.4121"
"81.6000","1.3531","3.4166"
"81.9000","1.3580","3.4241"
"82.2000","1.3633","3.4329"
"82.5000","1.3679","3.4376"
"82.8000","1.3739","3.4512"
"83.1000","1.3780","3.4543"
"83.4000","1.3831","3.4623"
"83.7000","1.3885","3.4707"
"84.0000","1.3928","3.4742"
"84.3000","1.3988","3.4882"
"84.6000","1.4029","3.4913"
"84.9000","1.4083","3.4996"
"85.2000","1.4134","3.5078"
"85.5000","1.4179","3.5120"
"85.8000","1.4235","3.5216"
"86.1000","1.4280","3.5265"
"86.4000","1.4334","3.5348"
"86.7000","1.4384","3.5422"
"87.0000","1.4430","3.5475"
"87.3000","1.4483","3.5564"
"87.6000","1.4531","3.5628"
"87.9000","1.4583","3.5706"
"88.2000","1.4631","3.5759"
"88.5000","1.4685","3.5851"
"88.8000","1.4731","3.5899"
"89.1000","1.4781","3.5955"
"89.4000","1.4832","3.6037"
"89.7000","1.4879","3.6090"
"90.0000","1.4938","3.6196"
"90.3000","1.4980","3.6218"
"90.6000","1.5032","3.6280"
"90.9000","1.5083","3.6345"
"91.2000","1.5128","3.6368"
"91.5000","1.5189","3.6475"
"91.8000","1.5230","3.6481"
"92.1000","1.5282","3.6542"
"92.4000","1.5334","3.6594"
"92.7000","1.5378","3.6607"
"93.0000","1.5436","3.6683"
"93.3000","1.5479","3.6693"
"93.6000","1.5533","3.6747"
"93.9000","1.5585","3.6807"
"94.2000","1.5630","3.6831"
"94.5000","1.5684","3.6909"
"94.8000","1.5730","3.6934"
"95.1000","1.5783","3.7001"
"95.4000","1.5833","3.7057"
"95.7000","1.5882","3.7103"
"96.0000","1.5932","3.7161"
"96.3000","1.5981","3.7216"
"96.6000","1.6033","3.7297"
"96.9000","1.6082","3.7344"
"97.2000","1.6135","3.7422"
"97.5000","1.6181","3.7471"
"97.8000","1.6232","3.7541"
"98.1000","1.6282","3.7603"
"98.4000","1.6329","3.7659"
"98.7000","1.6387","3.7769"
"99.0000","1.6430","3.7802"
"99.3000","1.6482","3.7873"
"99.6000","1.6532","3.7938"
"99.9000","1.6579","3.7988"
"100.2000","1.6638","3.8114"
"100.5000","1.6679","3.8143"
"100.8000","1.6733","3.8225"
"101.1000","1.6783","3.8295"
"101.4000","1.6829","3.8342"
"101.7000","1.6887","3.8455"
"102.0000","1.6929","3.8493"
"102.3000","1.6983","3.8579"
"102.6000","1.7034","3.8659"
"102.9000","1.7081","3.8708"
"103.2000","1.7135","3.8798"
"103.5000","1.7179","3.8847"
"103.8000","1.7233","3.8938"
"104.1000","1.7283","3.9008"
"104.4000","1.7332","3.9078"
"104.7000","1.7383","3.9151"
"105.0000","1.7431","3.9204"
"105.3000","1.7482","3.9283"
"105.6000","1.7532","3.9347"
"105.9000","1.7585","3.9427"
"106.2000","1.7631","3.9480"
"106.5000","1.7683","3.9553"
"106.8000","1.7732","3.9614"
"107.1000","1.7780","3.9674"
"107.4000","1.7836","3.9766"
"107.7000","1.7880","3.9799"
"108.0000","1.7934","3.9885"
"108.3000","1.7982","3.9946"
"108.6000","1.8029","3.9992"
"108.9000","1.8087","4.0094"
"109.2000","1.8130","4.0122"
"109.5000","1.8184","4.0193"
"109.8000","1.8232","4.0243"
"110.1000","1.8279","4.0286"
"110.4000","1.8335","4.0385"
"110.7000","1.8379","4.0419"
"111.0000","1.8433","4.0503"
"111.3000","1.8483","4.0562"
"111.6000","1.8531","4.0599"
"111.9000","1.8585","4.0687"
"112.2000","1.8630","4.0718"
"112.5000","1.8683","4.0775"
"112.8000","1.8733","4.0839"
"113.1000","1.8781","4.0897"
"113.4000","1.8834","4.0972"
"113.7000","1.8881","4.1012"
"114.0000","1.8932","4.1073"
"114.3000","1.8982","4.1125"
"114.6000","1.9034","4.1192"
"114.9000","1.9082","4.1243"
"115.2000","1.9133","4.1315"
"115.5000","1.9181","4.1367"
"115.8000","1.9230","4.1418"
"116.1000","1.9286","4.1518"
"116.4000","1.9331","4.1547"
"116.7000","1.9384","4.1622"
"117.0000","1.9431","4.1677"
"117.3000","1.9479","4.1725"
"117.6000","1.9537","4.1824"
"117.9000","1.9580","4.1849"
"118.2000","1.9635","4.1922"
"118.5000","1.9681","4.1968"
"118.8000","1.9729","4.2007"
"119.1000","1.9787","4.2110"
"119.4000","1.9829","4.2120"
"119.7000","1.9884","4.2193"
"120.0000","1.9933","4.2249"
"120.3000","1.9981","4.2296"
"120.6000","2.0037","4.2378"
"120.9000","2.0079","4.2394"
"121.2000","2.0133","4.2465"
"121.5000","2.0183","4.2515"
"121.8000","2.0232","4.2555"
"122.1000","2.0283","4.2608"
"122.4000","2.0330","4.2642"
"122.7000","2.0381","4.2691"
"123.0000","2.0432","4.2740"
"123.3000","2.0485","4.2808"
"123.6000","2.0532","4.2852"
"123.9000","2.0584","4.2914"
"124.2000","2.0632","4.2954"
"124.5000","2.0680","4.2991"
"124.8000","2.0735","4.3078"
"125.1000","2.0780","4.3105"
"125.4000","2.0835","4.3171"
"125.7000","2.0881","4.3198"
"126.0000","2.0929","4.3232"
"126.3000","2.0987","4.3336"
"126.6000","2.1028","4.3344"
"126.9000","2.1084","4.3418"
"127.2000","2.1132","4.3452"
"127.5000","2.1179","4.3486"
"127.8000","2.1236","4.3579"
"128.1000","2.1278","4.3592"
"128.4000","2.1335","4.3679"
"128.7000","2.1383","4.3727"
"129.0000","2.1431","4.3765"
"129.3000","2.1486","4.3836"
"129.6000","2.1529","4.3859"
"129.9000","2.1583","4.3923"
"130.2000","2.1633","4.3966"
"130.5000","2.1682","4.4006"
"130.8000","2.1734","4.4074"
"131.1000","2.1781","4.4113"
"131.4000","2.1832","4.4159"
"131.7000","2.1882","4.4203"
"132.0000","2.1933","4.4255"
"132.3000","2.1981","4.4291"
"132.6000","2.2035","4.4356"
"132.9000","2.2081","4.4381"
"133.2000","2.2131","4.4428"
"133.5000","2.2184","4.4503"
"133.8000","2.2230","4.4526"
"134.1000","2.2286","4.4595"
"134.4000","2.2331","4.4615"
"134.7000","2.2380","4.4646"
"135.0000","2.2435","4.4727"
"135.3000","2.2479","4.4731"
"135.6000","2.2537","4.4810"
"135.9000","2.2581","4.4828"
"136.2000","2.2631","4.4868"
"136.5000","2.2685","4.4938"
"136.8000","2.2729","4.4944"
"137.1000","2.2785","4.5015"
"137.4000","2.2832","4.5041"
"137.7000","2.2882","4.5076"
"138.0000","2.2934","4.5132"
"138.3000","2.2980","4.5141"
"138.6000","2.3033","4.5194"
"138.9000","2.3081","4.5222"
"139.2000","2.3132","4.5263"
"139.5000","2.3183","4.5303"
"139.8000","2.3233","4.5331"
"140.1000","2.3282","4.5353"
"140.4000","2.3332","4.5371"
"140.7000","2.3383","4.5404"
"141.0000","2.3431","4.5410"
"141.3000","2.3486","4.5449"
"141.6000","2.3531","4.5438"
"141.9000","2.3581","4.5459"
"142.2000","2.3633","4.5493"
"142.5000","2.3679","4.5484"
"142.8000","2.3737","4.5544"
"143.1000","2.3781","4.5528"
"143.4000","2.3831","4.5537"
"143.7000","2.3885","4.5570"
"144.0000","2.3929","4.5554"
"144.3000","2.3986","4.5590"
"144.6000","2.4030","4.5570"
"144.9000","2.4081","4.5578"
"145.2000","2.4134","4.5594"
"145.5000","2.4178","4.5567"
"145.8000","2.4235","4.5589"
"146.1000","2.4280","4.5556"
"146.4000","2.4332","4.5552"
"146.7000","2.4385","4.5551"
"147.0000","2.4430","4.5504"
"147.3000","2.4483","4.5499"
"147.6000","2.4531","4.5464"
"147.9000","2.4582","4.5441"
"148.2000","2.4633","4.5416"
"148.5000","2.4682","4.5381"
"148.8000","2.4732","4.5361"
"149.1000","2.4781","4.5331"
"149.4000","2.4834","4.5316"
"149.7000","2.4881","4.5274"
"150.0000","2.4934","4.5260"
"150.3000","2.4981","4.5211"
"150.6000","2.5030","4.5179"
"150.9000","2.5084","4.5177"
"151.2000","2.5130","4.5137"
"151.5000","2.5186","4.5158"
"151.8000","2.5231","4.5121"
"152.1000","2.5281","4.5117"
"152.4000","2.5335","4.5144"
"152.7000","2.5379","4.5118"
"153.0000","2.5438","4.5175"
"153.3000","2.5481","4.5147"
"153.6000","2.5531","4.5162"
"153.9000","2.5585","4.5204"
"154.2000","2.5628","4.5170"
"154.5000","2.5686","4.5231"
"154.8000","2.5731","4.5217"
"155.1000","2.5782","4.5234"
"155.4000","2.5835","4.5262"
"155.7000","2.5879","4.5228"
"156.0000","2.5934","4.5269"
"156.3000","2.5981","4.5257"
"156.6000","2.6033","4.5264"
"156.9000","2.6084","4.5257"
"157.2000","2.6132","4.5230"
"157.5000","2.6183","4.5211"
"157.8000","2.6231","4.5169"
"158.1000","2.6283","4.5151"
"158.4000","2.6332","4.5106"
"158.7000","2.6386","4.5087"
"159.0000","2.6431","4.5016"
"159.3000","2.6481","4.4976"
"159.6000","2.6533","4.4943"
"159.9000","2.6580","4.4866"
"160.2000","2.6638","4.4844"
"160.5000","2.6680","4.4743"
"160.8000","2.6731","4.4668"
"161.1000","2.6784","4.4619"
"161.4000","2.6828","4.4535"
"161.7000","2.6888","4.4521"
"162.0000","2.6930","4.4401"
"162.3000","2.6982","4.4357"
"162.6000","2.7034","4.4317"
"162.9000","2.7079","4.4223"
"163.2000","2.7137","4.4202"
"163.5000","2.7180","4.4111"
"163.8000","2.7233","4.4048"
"164.1000","2.7285","4.4001"
"164.4000","2.7330","4.3911"
"164.7000","2.7384","4.3879"
"165.0000","2.7430","4.3801"
"165.3000","2.7482","4.3761"
"165.6000","2.7534","4.3720"
"165.9000","2.7581","4.3663"
"166.2000","2.7631","4.3622"
"166.5000","2.7681","4.3578"
"166.8000","2.7733","4.3544"
"167.1000","2.7781","4.3497"
"167.4000","2.7835","4.3484"
"167.7000","2.7881","4.3432"
"168.0000","2.7932","4.3399"
"168.3000","2.7981","4.3346"
"168.6000","2.8029","4.3259"
"168.9000","2.8086","4.3224"
"169.2000","2.8130","4.3137"
"169.5000","2.8183","4.3083"
"169.8000","2.8233","4.3023"
"170.1000","2.8279","4.2954"
"170.4000","2.8337","4.2958"
"170.7000","2.8379","4.2887"
"171.0000","2.8433","4.2867"
"171.3000","2.8483","4.2836"
"171.6000","2.8529","4.2760"
"171.9000","2.8585","4.2754"
"172.2000","2.8629","4.2683"
"172.5000","2.8683","4.2662"
"172.8000","2.8734","4.2631"
"173.1000","2.8781","4.2570"
"173.4000","2.8833","4.2533"
"173.7000","2.8880","4.2472"
"174.0000","2.8932","4.2439"
"174.3000","2.8983","4.2397"
"174.6000","2.9032","4.2349"
"174.9000","2.9083","4.2295"
"175.2000","2.9132","4.2237"
"175.5000","2.9183","4.2189"
"175.8000","2.9232","4.2138"
"176.1000","2.9285","4.2110"
"176.4000","2.9331","4.2048"
"176.7000","2.9383","4.2010"
"177.0000","2.9432","4.1963"
"177.3000","2.9479","4.1909"
"177.6000","2.9536","4.1908"
"177.9000","2.9580","4.1831"
"178.2000","2.9634","4.1809"
"178.5000","2.9683","4.1763"
"178.8000","2.9729","4.1682"
"179.1000","2.9787","4.1673"
"179.4000","2.9829","4.1569"
"179.7000","2.9883","4.1554"
"180.0000","2.9933","4.1511"
"180.3000","2.9980","4.1455"
"180.6000","3.0035","4.1450"
"180.9000","3.0079","4.1385"
"181.2000","3.0133","4.1372"
"181.5000","3.0183","4.1351"
"181.8000","3.0231","4.1313"
"182.1000","3.0284","4.1295"
"182.4000","3.0330","4.1230"
"182.7000","3.0382","4.1191"
"183.0000","3.0432","4.1138"
"183.3000","3.0482","4.1086"
"183.6000","3.0532","4.1030"
"183.9000","3.0581","4.0979"
"184.2000","3.0632","4.0933"
"184.5000","3.0681","4.0880"
"184.8000","3.0734","4.0855"
"185.1000","3.0781","4.0804"
"185.4000","3.0833","4.0779"
"185.7000","3.0881","4.0738"
"186.0000","3.0929","4.0692"
"186.3000","3.0987","4.0695"
"186.6000","3.1029","4.0598"
"186.9000","3.1084","4.0575"
"187.2000","3.1131","4.0521"
"187.5000","3.1179","4.0443"
"187.8000","3.1238","4.0422"
"188.1000","3.1279","4.0292"
"188.4000","3.1334","4.0230"
"188.7000","3.1382","4.0135"
"189.0000","3.1430","4.0035"
"189.3000","3.1486","3.9989"
"189.6000","3.1529","3.9868"
"189.9000","3.1584","3.9804"
"190.2000","3.1633","3.9729"
"190.5000","3.1681","3.9634"
"190.8000","3.1735","3.9582"
"191.1000","3.1780","3.9486"
"191.4000","3.1832","3.9419"
"191.7000","3.1882","3.9348"
"192.0000","3.1933","3.9277"
"192.3000","3.1983","3.9194"
"192.6000","3.2032","3.9108"
"192.9000","3.2083","3.9029"
"193.2000","3.2131","3.8930"
"193.5000","3.2185","3.8868"
"193.8000","3.2232","3.8769"
"194.1000","3.2284","3.8705"
"194.4000","3.2331","3.8611"
"194.7000","3.2380","3.8524"
"195.0000","3.2436","3.8465"
"195.3000","3.2479","3.8331"
"195.6000","3.2535","3.8270"
"195.9000","3.2581","3.8161"
"196.2000","3.2629","3.8074"
"196.5000","3.2687","3.8047"
"196.8000","3.2729","3.7943"
"197.1000","3.2785","3.7922"
"197.4000","3.2832","3.7860"
"197.7000","3.2880","3.7796"
"198.0000","3.2934","3.7772"
"198.3000","3.2979","3.7688"
"198.6000","3.3034","3.7663"
"198.9000","3.3084","3.7612"
"199.2000","3.3132","3.7552"
"199.5000","3.3184","3.7520"
"199.8000","3.3230","3.7437"
"200.1000","3.3282","3.7395"
"200.4000","3.3333","3.7354"
"200.7000","3.3383","3.7304"
"201.0000","3.3432","3.7236"
"201.3000","3.3482","3.7161"
"201.6000","3.3532","3.7092"
"201.9000","3.3581","3.7028"
"202.2000","3.3634","3.6991"
"202.5000","3.3681","3.6922"
"202.8000","3.3735","3.6883"
"203.1000","3.3781","3.6790"
"203.4000","3.3829","3.6714"
"203.7000","3.3885","3.6675"
"204.0000","3.3930","3.6582"
"204.3000","3.3986","3.6544"
"204.6000","3.4031","3.6450"
"204.9000","3.4079","3.6360"
"205.2000","3.4135","3.6322"
"205.5000","3.4178","3.6230"
"205.8000","3.4236","3.6202"
"206.1000","3.4281","3.6119"
"206.4000","3.4332","3.6047"
"206.7000","3.4386","3.5992"
"207.0000","3.4429","3.5894"
"207.3000","3.4485","3.5862"
"207.6000","3.4532","3.5777"
"207.9000","3.4582","3.5722"
"208.2000","3.4635","3.5680"
"208.5000","3.4679","3.5573"
"208.8000","3.4732","3.5508"
"209.1000","3.4781","3.5428"
"209.4000","3.4832","3.5353"
"209.7000","3.4882","3.5290"
"210.0000","3.4934","3.5233"
"210.3000","3.4982","3.5159"
"210.6000","3.5032","3.5092"
"210.9000","3.5083","3.5048"
"211.2000","3.5130","3.4986"
"211.5000","3.5186","3.4967"
"211.8000","3.5231","3.4898"
"212.1000","3.5280","3.4840"
"212.4000","3.5333","3.4825"
"212.7000","3.5379","3.4750"
"213.0000","3.5437","3.4755"
"213.3000","3.5481","3.4692"
"213.6000","3.5531","3.4657"
"213.9000","3.5585","3.4651"
"214.2000","3.5628","3.4591"
"214.5000","3.5687","3.4618"
"214.8000","3.5730","3.4577"
"215.1000","3.5781","3.4566"
"215.4000","3.5835","3.4588"
"215.7000","3.5879","3.4543"
"216.0000","3.5935","3.4563"
"216.3000","3.5981","3.4536"
"216.6000","3.6032","3.4527"
"216.9000","3.6085","3.4533"
"217.2000","3.6130","3.4496"
"217.5000","3.6182","3.4499"
"217.8000","3.6232","3.4490"
"218.1000","3.6282","3.4479"
"218.4000","3.6332","3.4464"
"218.7000","3.6383","3.4451"
"219.0000","3.6432","3.4429"
"219.3000","3.6481","3.4397"
"219.6000","3.6534","3.4385"
"219.9000","3.6581","3.4353"
"220.2000","3.6636","3.4353"
"220.5000","3.6680","3.4310"
"220.8000","3.6730","3.4291"
"221.1000","3.6784","3.4288"
"221.4000","3.6829","3.4241"
"221.7000","3.6887","3.4268"
"222.0000","3.6932","3.4227"
"222.3000","3.6981","3.4200"
"222.6000","3.7035","3.4209"
"222.9000","3.7079","3.4160"
"223.2000","3.7136","3.4195"
"223.5000","3.7180","3.4151"
"223.8000","3.7232","3.4144"
"224.1000","3.7285","3.4146"
"224.4000","3.7329","3.4104"
"224.7000","3.7385","3.4130"
"225.0000","3.7431","3.4083"
"225.3000","3.7482","3.4069"
"225.6000","3.7534","3.4066"
"225.9000","3.7580","3.4019"
"226.2000","3.7633","3.4006"
"226.5000","3.7680","3.3963"
"226.8000","3.7733","3.3940"
"227.1000","3.7783","3.3908"
"227.4000","3.7833","3.3856"
"227.7000","3.7883","3.3819"
"228.0000","3.7931","3.3781"
"228.3000","3.7983","3.3758"
"228.6000","3.8030","3.3699"
"228.9000","3.8085","3.3685"
"229.2000","3.8131","3.3623"
"229.5000","3.8182","3.3586"
"229.8000","3.8233","3.3563"
"230.1000","3.8279","3.3506"
"230.4000","3.8337","3.3520"
"230.7000","3.8380","3.3457"
"231.0000","3.8432","3.3431"
"231.3000","3.8484","3.3415"
"231.6000","3.8528","3.3341"
"231.9000","3.8587","3.3357"
"232.2000","3.8630","3.3294"
"232.5000","3.8683","3.3276"
"232.8000","3.8734","3.3265"
"233.1000","3.8778","3.3196"
"233.4000","3.8835","3.3204"
"233.7000","3.8881","3.3152"
"234.0000","3.8933","3.3138"
"234.3000","3.8984","3.3132"
"234.6000","3.9030","3.3080"
"234.9000","3.9083","3.3084"
"235.2000","3.9131","3.3045"
"235.5000","3.9182","3.3033"
"235.8000","3.9232","3.3022"
"236.1000","3.9282","3.3013"
"236.4000","3.9332","3.3004"
"236.7000","3.9382","3.2989"
"237.0000","3.9433","3.2987"
"237.3000","3.9481","3.2961"
"237.6000","3.9535","3.2978"
"237.9000","3.9581","3.2945"
"238.2000","3.9632","3.2937"
"238.5000","3.9683","3.2928"
"238.8000","3.9729","3.2885"
"239.1000","3.9788","3.2921"
"239.4000","3.9831","3.2865"
"239.7000","3.9882","3.2866"
"240.0000","3.9934","3.2871"
"240.3000","3.9978","3.2818"
"240.6000","4.0038","3.2859"
"240.9000","4.0079","3.2793"
"241.2000","4.0133","3.2783"
"241.5000","4.0183","3.2763"
"241.8000","4.0229","3.2709"
"242.1000","4.0286","3.2725"
"242.4000","4.0330","3.2670"
"242.7000","4.0383","3.2668"
"243.0000","4.0434","3.2652"
"243.3000","4.0481","3.2606"
"243.6000","4.0533","3.2588"
"243.9000","4.0581","3.2540"
"244.2000","4.0632","3.2518"
"244.5000","4.0682","3.2488"
"244.8000","4.0734","3.2466"
"245.1000","4.0782","3.2433"
"245.4000","4.0832","3.2404"
"245.7000","4.0882","3.2374"
"246.0000","4.0931","3.2328"
"246.3000","4.0985","3.2312"
"246.6000","4.1030","3.2247"
"246.9000","4.1083","3.2217"
"247.2000","4.1131","3.2164"
"247.5000","4.1179","3.2101"
"247.8000","4.1237","3.2104"
"248.1000","4.1280","3.2018"
"248.4000","4.1334","3.1988"
"248.7000","4.1382","3.1934"
"249.0000","4.1429","3.1872"
"249.3000","4.1487","3.1869"
"249.6000","4.1529","3.1784"
"249.9000","4.1583","3.1767"
"250.2000","4.1633","3.1726"
"250.5000","4.1680","3.1665"
"250.8000","4.1736","3.1658"
"251.1000","4.1780","3.1586"
"251.4000","4.1832","3.1564"
"251.7000","4.1883","3.1536"
"252.0000","4.1931","3.1486"
"252.3000","4.1983","3.1457"
"252.6000","4.2031","3.1399"
"252.9000","4.2082","3.1357"
"253.2000","4.2132","3.1305"
"253.5000","4.2184","3.1255"
"253.8000","4.2232","3.1184"
"254.1000","4.2283","3.1142"
"254.4000","4.2332","3.1088"
"254.7000","4.2380","3.1023"
"255.0000","4.2435","3.0992"
"255.3000","4.2480","3.0913"
"255.6000","4.2534","3.0882"
"255.9000","4.2582","3.0828"
"256.2000","4.2628","3.0759"
"256.5000","4.2688","3.0776"
"256.8000","4.2730","3.0687"
"257.1000","4.2785","3.0676"
"257.4000","4.2832","3.0633"
"257.7000","4.2878","3.0575"
"258.0000","4.2937","3.0587"
"258.3000","4.2979","3.0510"
"258.6000","4.3035","3.0496"
"258.9000","4.3083","3.0452"
"259.2000","4.3130","3.0405"
"259.5000","4.3186","3.0409"
"259.8000","4.3229","3.0342"
"260.1000","4.3284","3.0338"
"260.4000","4.3332","3.0313"
"260.7000","4.3382","3.0278"
"261.0000","4.3434","3.0257"
"261.3000","4.3480","3.0203"
"261.6000","4.3533","3.0190"
"261.9000","4.3581","3.0160"
"262.2000","4.3634","3.0149"
"262.5000","4.3683","3.0113"
"262.8000","4.3733","3.0070"
"263.1000","4.3782","3.0018"
"263.4000","4.3830","2.9955"
"263.7000","4.3885","2.9943"
"264.0000","4.3930","2.9892"
"264.3000","4.3985","2.9885"
"264.6000","4.4032","2.9849"
"264.9000","4.4079","2.9811"
"265.2000","4.4136","2.9822"
"265.5000","4.4180","2.9764"
"265.8000","4.4235","2.9751"
"266.1000","4.4282","2.9707"
"266.4000","4.4329","2.9657"
"266.7000","4.4387","2.9663"
"267.0000","4.4429","2.9575"
"267.3000","4.4485","2.9556"
"267.6000","4.4532","2.9496"
"267.9000","4.4580","2.9441"
"268.2000","4.4636","2.9424"
"268.5000","4.4679","2.9344"
"268.8000","4.4733","2.9317"
"269.1000","4.4782","2.9277"
"269.4000","4.4832","2.9242"
"269.7000","4.4884","2.9224"
"270.0000","4.4931","2.9178"
"270.3000","4.4983","2.9167"
"270.6000","4.5031","2.9146"
"270.9000","4.5083","2.9135"
"271.2000","4.5132","2.9113"
"271.5000","4.5183","2.9097"
"271.8000","4.5231","2.9073"
"272.1000","4.5280","2.9049"
"272.4000","4.5334","2.9056"
"272.7000","4.5380","2.9027"
"273.0000","4.5436","2.9042"
"273.3000","4.5481","2.9010"
"273.6000","4.5530","2.8993"
"273.9000","4.5586","2.9012"
"274.2000","4.5630","2.8971"
"274.5000","4.5686","2.8997"
"274.8000","4.5731","2.8974"
"275.1000","4.5780","2.8964"
"275.4000","4.5836","2.8996"
"275.7000","4.5878","2.8957"
"276.0000","4.5936","2.8993"
"276.3000","4.5982","2.8979"
"276.6000","4.6031","2.8979"
"276.9000","4.6086","2.9006"
"277.2000","4.6130","2.8978"
"277.5000","4.6184","2.8997"
"277.8000","4.6232","2.8990"
"278.1000","4.6282","2.8980"
"278.4000","4.6334","2.8991"
"278.7000","4.6381","2.8969"
"279.0000","4.6432","2.8975"
"279.3000","4.6481","2.8966"
"279.6000","4.6533","2.8975"
"279.9000","4.6582","2.8977"
"280.2000","4.6635","2.8989"
"280.5000","4.6682","2.8972"
"280.8000","4.6731","2.8961"
"281.1000","4.6784","2.8973"
"281.4000","4.6830","2.8952"
"281.7000","4.6886","2.8982"
"282.0000","4.6931","2.8954"
"282.3000","4.6980","2.8950"
"282.6000","4.7035","2.8966"
"282.9000","4.7079","2.8932"
"283.2000","4.7137","2.8960"
"283.5000","4.7181","2.8927"
"283.8000","4.7231","2.8921"
"284.1000","4.7285","2.8943"
"284.4000","4.7328","2.8900"
"284.7000","4.7384","2.8919"
"285.0000","4.7430","2.8891"
"285.3000","4.7481","2.8877"
"285.6000","4.7535","2.8875"
"285.9000","4.7580","2.8829"
"286.2000","4.7634","2.8829"
"286.5000","4.7682","2.8787"
"286.8000","4.7732","2.8753"
"287.1000","4.7783","2.8729"
"287.4000","4.7831","2.8685"
"287.7000","4.7883","2.8668"
"288.0000","4.7931","2.8615"
"288.3000","4.7983","2.8580"
"288.6000","4.8032","2.8540"
"288.9000","4.8084","2.8514"
"289.2000","4.8132","2.8468"
"289.5000","4.8181","2.8420"
"289.8000","4.8233","2.8390"
"290.1000","4.8280","2.8337"
"290.4000","4.8337","2.8335"
"290.7000","4.8381","2.8276"
"291.0000","4.8431","2.8241"
"291.3000","4.8482","2.8228"
"291.6000","4.8528","2.8190"
"291.9000","4.8587","2.8209"
"292.2000","4.8630","2.8161"
"292.5000","4.8681","2.8141"
"292.8000","4.8735","2.8149"
"293.1000","4.8778","2.8089"
"293.4000","4.8837","2.8116"
"293.7000","4.8880","2.8072"
"294.0000","4.8932","2.8056"
"294.3000","4.8986","2.8067"
"294.6000","4.9029","2.8017"
"294.9000","4.9084","2.8031"
"295.2000","4.9130","2.7993"
"295.5000","4.9183","2.7974"
"295.8000","4.9234","2.7957"
"296.1000","4.9281","2.7912"
"296.4000","4.9333","2.7891"
"296.7000","4.9381","2.7854"
"297.0000","4.9433","2.7839"
"297.3000","4.9483","2.7823"
"297.6000","4.9534","2.7812"
"297.9000","4.9582","2.7789"
"298.2000","4.9631","2.7767"
"298.5000","4.9682","2.7761"
"298.8000","4.9730","2.7732"
"299.1000","4.9786","2.7750"
"299.4000","4.9831","2.7705"
"299.7000","4.9881","2.7690"
"300.0000","4.9934","2.7697"
"300.3000","4.9979","2.7660"
"300.6000","5.0038","2.7698"
"300.9000","5.0080","2.7649"
"301.2000","5.0131","2.7633"
"301.5000","5.0184","2.7641"
"301.8000","5.0228","2.7584"
"302.1000","5.0287","2.7610"
"302.4000","5.0330","2.7546"
"302.7000","5.0382","2.7535"
"303.0000","5.0435","2.7536"
"303.3000","5.0479","2.7488"
"303.6000","5.0535","2.7498"
"303.9000","5.0581","2.7472"
"304.2000","5.0633","2.7466"
"304.5000","5.0684","2.7460"
"304.8000","5.0731","2.7435"
"305.1000","5.0783","2.7434"
"305.4000","5.0831","2.7407"
"305.7000","5.0882","2.7388"
"306.0000","5.0932","2.7361"
"306.3000","5.0985","2.7353"
"306.6000","5.1031","2.7298"
"306.9000","5.1082","2.7260"
"307.2000","5.1132","2.7225"
"307.5000","5.1180","2.7180"
"307.8000","5.1238","2.7195"
"308.1000","5.1281","2.7136"
"308.4000","5.1332","2.7117"
"308.7000","5.1383","2.7098"
"309.0000","5.1429","2.7045"
"309.3000","5.1489","2.7076"
"309.6000","5.1530","2.7017"
"309.9000","5.1583","2.7015"
"310.2000","5.1633","2.7002"
"310.5000","5.1678","2.6957"
"310.8000","5.1737","2.6979"
"311.1000","5.1779","2.6922"
"311.4000","5.1833","2.6903"
"311.7000","5.1884","2.6877"
"312.0000","5.1931","2.6822"
"312.3000","5.1985","2.6797"
"312.6000","5.2029","2.6720"
"312.9000","5.2082","2.6698"
"313.2000","5.2133","2.6660"
"313.5000","5.2182","2.6619"
"313.8000","5.2233","2.6581"
"314.1000","5.2281","2.6538"
"314.4000","5.2333","2.6512"
"314.7000","5.2382","2.6474"
"315.0000","5.2435","2.6450"
"315.3000","5.2481","2.6390"
"315.6000","5.2533","2.6362"
"315.9000","5.2581","2.6322"
"316.2000","5.2629","2.6281"
"316.5000","5.2687","2.6290"
"316.8000","5.2730","2.6225"
"317.1000","5.2784","2.6213"
"317.4000","5.2832","2.6177"
"317.7000","5.2879","2.6134"
"318.0000","5.2938","2.6157"
"318.3000","5.2979","2.6092"
"318.6000","5.3033","2.6091"
"318.9000","5.3082","2.6069"
"319.2000","5.3129","2.6020"
"319.5000","5.3186","2.6034"
"319.8000","5.3229","2.5991"
"320.1000","5.3283","2.5988"
"320.4000","5.3334","2.5971"
"320.7000","5.3381","2.5924"
"321.0000","5.3435","2.5928"
"321.3000","5.3480","2.5871"
"321.6000","5.3533","2.5843"
"321.9000","5.3583","2.5801"
"322.2000","5.3632","2.5752"
"322.5000","5.3683","2.5720"
"322.8000","5.3731","2.5674"
"323.1000","5.3783","2.5643"
"323.4000","5.3832","2.5610"
"323.7000","5.3885","2.5591"
"324.0000","5.3932","2.5550"
"324.3000","5.3982","2.5522"
"324.6000","5.4031","2.5490"
"324.9000","5.4080","2.5452"
"325.2000","5.4135","2.5459"
"325.5000","5.4180","2.5410"
"325.8000","5.4234","2.5410"
"326.1000","5.4282","2.5387"
"326.4000","5.4329","2.5352"
"326.7000","5.4387","2.5380"
"327.0000","5.4429","2.5322"
"327.3000","5.4484","2.5319"
"327.6000","5.4533","2.5288"
"327.9000","5.4579","2.5237"
"328.2000","5.4637","2.5252"
"328.5000","5.4679","2.5164"
"328.8000","5.4733","2.5151"
"329.1000","5.4783","2.5123"
"329.4000","5.4830","2.5083"
"329.7000","5.4885","2.5091"
"330.0000","5.4929","2.5044"
"330.3000","5.4983","2.5034"
"330.6000","5.5033","2.5018"
"330.9000","5.5082","2.4987"
"331.2000","5.5133","2.4976"
"331.5000","5.5181","2.4949"
"331.8000","5.5232","2.4934"
"332.1000","5.5282","2.4915"
"332.4000","5.5335","2.4921"
"332.7000","5.5382","2.4895"
"333.0000","5.5433","2.4887"
"333.3000","5.5481","2.4873"
"333.6000","5.5530","2.4846"
"333.9000","5.5585","2.4874"
"334.2000","5.5630","2.4848"
"334.5000","5.5685","2.4864"
"334.8000","5.5731","2.4852"
"335.1000","5.5778","2.4825"
"335.4000","5.5837","2.4877"
"335.7000","5.5879","2.4831"
"336.0000","5.5935","2.4861"
"336.3000","5.5982","2.4844"
"336.6000","5.6029","2.4817"
"336.9000","5.6087","2.4861"
"337.2000","5.6129","2.4805"
"337.5000","5.6184","2.4820"
"337.8000","5.6233","2.4799"
"338.1000","5.6281","2.4770"
"338.4000","5.6335","2.4785"
"338.7000","5.6379","2.4741"
"339.0000","5.6432","2.4753"
"339.3000","5.6483","2.4756"
"339.6000","5.6532","2.4752"
"339.9000","5.6584","2.4768"
"340.2000","5.6631","2.4750"
"340.5000","5.6682","2.4750"
"340.8000","5.6732","2.4736"
"341.1000","5.6785","2.4746"
"341.4000","5.6832","2.4724"
"341.7000","5.6883","2.4718"
"342.0000","5.6931","2.4694"
"342.3000","5.6980","2.4671"
"342.6000","5.7035","2.4684"
"342.9000","5.7080","2.4644"
"343.2000","5.7136","2.4666"
"343.5000","5.7182","2.4631"
"343.8000","5.7229","2.4603"
"344.1000","5.7287","2.4631"
"344.4000","5.7328","2.4569"
"344.7000","5.7387","2.4590"
"345.0000","5.7431","2.4539"
"345.3000","5.7479","2.4506"
"345.6000","5.7536","2.4523"
"345.9000","5.7578","2.4455"
"346.2000","5.7635","2.4464"
"346.5000","5.7682","2.4428"
"346.8000","5.7732","2.4396"
"347.1000","5.7785","2.4389"
"347.4000","5.7829","2.4325"
"347.7000","5.7883","2.4310"
"348.0000","5.7932","2.4282"
"348.3000","5.7982","2.4248"
"348.6000","5.8033","2.4222"
"348.9000","5.8082","2.4190"
"349.2000","5.8132","2.4167"
"349.5000","5.8182","2.4139"
"349.8000","5.8234","2.4126"
"350.1000","5.8281","2.4096"
"350.4000","5.8335","2.4091"
"350.7000","5.8381","2.4055"
"351.0000","5.8430","2.4024"
"351.3000","5.8484","2.4026"
"351.6000","5.8529","2.3974"
"351.9000","5.8586","2.3986"
"352.2000","5.8631","2.3928"
"352.5000","5.8680","2.3889"
"352.8000","5.8735","2.3888"
"353.1000","5.8779","2.3815"
"353.4000","5.8836","2.3825"
"353.7000","5.8881","2.3772"
"354.0000","5.8931","2.3744"
"354.3000","5.8985","2.3751"
"354.6000","5.9028","2.3699"
"354.9000","5.9085","2.3697"
"355.2000","5.9132","2.3656"
"355.5000","5.9182","2.3627"
"355.8000","5.9235","2.3614"
"356.1000","5.9280","2.3547"
"356.4000","5.9333","2.3534"
"356.7000","5.9382","2.3502"
"357.0000","5.9432","2.3474"
"357.3000","5.9483","2.3463"
"357.6000","5.9532","2.3432"
"357.9000","5.9582","2.3417"
"358.2000","5.9632","2.3402"
"358.5000","5.9683","2.3397"
"358.8000","5.9731","2.3373"
"359.1000","5.9785","2.3377"
"359.4000","5.9832","2.3360"
"359.7000","5.9881","2.3347"
"360.0000","5.9933","2.3353"
"360.3000","5.9979","2.3321"
"360.6000","6.0036","2.3337"
"360.9000","6.0081","2.3296"
"361.2000","6.0131","2.3265"
"361.5000","6.0184","2.3270"
"361.8000","6.0229","2.3211"
"362.1000","6.0288","2.3240"
"362.4000","6.0330","2.3177"
"362.7000","6.0381","2.3163"
"363.0000","6.0435","2.3166"
"363.3000","6.0478","2.3116"
"363.6000","6.0536","2.3134"
"363.9000","6.0581","2.3104"
"364.2000","6.0632","2.3089"
"364.5000","6.0685","2.3102"
"364.8000","6.0730","2.3063"
"365.1000","6.0783","2.3073"
"365.4000","6.0831","2.3057"
"365.7000","6.0882","2.3054"
"366.0000","6.0934","2.3057"
"366.3000","6.0982","2.3029"
"366.6000","6.1032","2.3009"
"366.9000","6.1081","2.2983"
"367.2000","6.1133","2.2971"
"367.5000","6.1182","2.2935"
"367.8000","6.1235","2.2930"
"368.1000","6.1281","2.2884"
"368.4000","6.1331","2.2861"
"368.7000","6.1383","2.2855"
"369.0000","6.1430","2.2812"
"369.3000","6.1487","2.2828"
"369.6000","6.1530","2.2765"
"369.9000","6.1582","2.2739"
"370.2000","6.1635","2.2734"
"370.5000","6.1678","2.2670"
"370.8000","6.1736","2.2688"
"371.1000","6.1780","2.2646"
"371.4000","6.1831","2.2633"
"371.7000","6.1884","2.2642"
"372.0000","6.1928","2.2595"
"372.3000","6.1985","2.2613"
"372.6000","6.2030","2.2566"
"372.9000","6.2082","2.2545"
"373.2000","6.2135","2.2530"
"373.5000","6.2180","2.2460"
"373.8000","6.2233","2.2433"
"374.1000","6.2280","2.2377"
"374.4000","6.2332","2.2348"
"374.7000","6.2383","2.2323"
"375.0000","6.2432","2.2283"
"375.3000","6.2481","2.2246"
"375.6000","6.2532","2.2209"
"375.9000","6.2583","2.2178"
"376.2000","6.2632","2.2139"
"376.5000","6.2685","2.2120"
"376.8000","6.2731","2.2082"
"377.1000","6.2781","2.2053"
"377.4000","6.2833","2.2049"
"377.7000","6.2879","2.2003"
"378.0000","6.2937","2.2031"
"378.3000","6.2980","2.1978"
"378.6000","6.3032","2.1961"
"378.9000","6.3084","2.1966"
"379.2000","6.3128","2.1919"
"379.5000","6.3187","2.1953"
"379.8000","6.3230","2.1907"
"380.1000","6.3283","2.1901"
"380.4000","6.3334","2.1902"
"380.7000","6.3379","2.1859"
"381.0000","6.3435","2.1877"
"381.3000","6.3480","2.1838"
"381.6000","6.3534","2.1839"
"381.9000","6.3585","2.1827"
"382.2000","6.3630","2.1785"
"382.5000","6.3684","2.1790"
"382.8000","6.3730","2.1754"
"383.1000","6.3782","2.1741"
"383.4000","6.3833","2.1726"
"383.7000","6.3883","2.1695"
"384.0000","6.3932","2.1664"
"384.3000","6.3982","2.1634"
"384.6000","6.4033","2.1606"
"384.9000","6.4081","2.1568"
"385.2000","6.4136","2.1584"
"385.5000","6.4181","2.1536"
"385.8000","6.4233","2.1523"
"386.1000","6.4282","2.1503"
"386.4000","6.4329","2.1466"
"386.7000","6.4386","2.1473"
"387.0000","6.4429","2.1415"
"387.3000","6.4484","2.1396"
"387.6000","6.4533","2.1369"
"387.9000","6.4579","2.1317"
"388.2000","6.4637","2.1336"
"388.5000","6.4679","2.1268"
"388.8000","6.4734","2.1256"
"389.1000","6.4783","2.1238"
"389.4000","6.4829","2.1183"
"389.7000","6.4886","2.1194"
"390.0000","6.4929","2.1139"
"390.3000","6.4982","2.1128"
"390.6000","6.5034","2.1125"
"390.9000","6.5081","2.1092"
"391.2000","6.5134","2.1089"
"391.5000","6.5180","2.1057"
"391.8000","6.5232","2.1058"
"392.1000","6.5283","2.1050"
"392.4000","6.5333","2.1044"
"392.7000","6.5382","2.1032"
"393.0000","6.5432","2.1028"
"393.3000","6.5483","2.1022"
"393.6000","6.5531","2.1001"
"393.9000","6.5585","2.1011"
"394.2000","6.5631","2.0991"
"394.5000","6.5683","2.0993"
"394.8000","6.5731","2.0986"
"395.1000","6.5779","2.0968"
"395.4000","6.5836","2.1001"
"395.7000","6.5880","2.0968"
"396.0000","6.5934","2.0975"
"396.3000","6.5982","2.0963"
"396.6000","6.6028","2.0937"
"396.9000","6.6088","2.0983"
"397.2000","6.6129","2.0936"
"397.5000","6.6184","2.0948"
"397.8000","6.6232","2.0939"
"398.1000","6.6279","2.0910"
"398.4000","6.6336","2.0937"
"398.7000","6.6378","2.0881"
"399.0000","6.6434","2.0889"
"399.3000","6.6483","2.0872"
"399.6000","6.6531","2.0831"
"399.9000","6.6585","2.0830"
"400.2000","6.6630","2.0781"
"400.5000","6.6682","2.0774"
"400.8000","6.6732","2.0765"
"401.1000","6.6783","2.0758"
"401.4000","6.6833","2.0754"
"401.7000","6.6882","2.0740"
"402.0000","6.6933","2.0736"
"402.3000","6.6981","2.0708"
"402.6000","6.7035","2.0715"
"402.9000","6.7081","2.0683"
"403.2000","6.7134","2.0677"
"403.5000","6.7182","2.0658"
"403.8000","6.7229","2.0624"
"404.1000","6.7286","2.0661"
"404.4000","6.7330","2.0615"
"404.7000","6.7386","2.0631"
"405.0000","6.7432","2.0605"
"405.3000","6.7478","2.0559"
"405.6000","6.7537","2.0609"
"405.9000","6.7579","2.0545"
"406.2000","6.7635","2.0555"
"406.5000","6.7682","2.0525"
"406.8000","6.7729","2.0486"
"407.1000","6.7787","2.0509"
"407.4000","6.7829","2.0453"
"407.7000","6.7884","2.0463"
"408.0000","6.7933","2.0449"
"408.3000","6.7981","2.0421"
"408.6000","6.8035","2.0429"
"408.9000","6.8080","2.0381"
"409.2000","6.8133","2.0372"
"409.5000","6.8182","2.0347"
"409.8000","6.8233","2.0324"
"410.1000","6.8283","2.0302"
"410.4000","6.8332","2.0276"
"410.7000","6.8383","2.0264"
"411.0000","6.8431","2.0241"
"411.3000","6.8485","2.0248"
"411.6000","6.8532","2.0219"
"411.9000","6.8584","2.0212"
"412.2000","6.8631","2.0186"
"412.5000","6.8679","2.0161"
"412.8000","6.8736","2.0195"
"413.1000","6.8780","2.0160"
"413.4000","6.8836","2.0177"
"413.7000","6.8881","2.0148"
"414.0000","6.8929","2.0118"
"414.3000","6.8987","2.0144"
"414.6000","6.9029","2.0085"
"414.9000","6.9085","2.0083"
"415.2000","6.9131","2.0043"
"415.5000","6.9180","2.0006"
"415.8000","6.9237","2.0024"
"416.1000","6.9278","1.9949"
"416.4000","6.9335","1.9965"
"416.7000","6.9382","1.9934"
"417.0000","6.9432","1.9916"
"417.3000","6.9485","1.9915"
"417.6000","6.9530","1.9876"
"417.9000","6.9583","1.9874"
"418.2000","6.9631","1.9855"
"418.5000","6.9683","1.9847"
"418.8000","6.9732","1.9828"
"419.1000","6.9783","1.9807"
"419.4000","6.9833","1.9797"
"419.7000","6.9881","1.9772"
"420.0000","6.9934","1.9774"
"420.3000","6.9981","1.9745"
"420.6000","7.0035","1.9748"
"420.9000","7.0081","1.9718"
"421.2000","7.0131","1.9694"
"421.5000","7.0186","1.9717"
"421.8000","7.0227","1.9659"
"422.1000","7.0286","1.9688"
"422.4000","7.0331","1.9646"
"422.7000","7.0381","1.9620"
"423.0000","7.0437","1.9639"
"423.3000","7.0479","1.9570"
"423.6000","7.0536","1.9600"
"423.9000","7.0581","1.9572"
"424.2000","7.0631","1.9566"
"424.5000","7.0686","1.9592"
"424.8000","7.0729","1.9539"
"425.1000","7.0784","1.9556"
"425.4000","7.0830","1.9527"
"425.7000","7.0882","1.9519"
"426.0000","7.0935","1.9524"
"426.3000","7.0981","1.9496"
"426.6000","7.1031","1.9490"
"426.9000","7.1081","1.9480"
"427.2000","7.1133","1.9470"
"427.5000","7.1182","1.9446"
"427.8000","7.1232","1.9427"
"428.1000","7.1282","1.9408"
"428.4000","7.1331","1.9381"
"428.7000","7.1383","1.9370"
"429.0000","7.1428","1.9317"
"429.3000","7.1484","1.9319"
"429.6000","7.1530","1.9274"
"429.9000","7.1580","1.9232"
"430.2000","7.1634","1.9218"
"430.5000","7.1679","1.9151"
"430.8000","7.1737","1.9152"
"431.1000","7.1781","1.9086"
"431.4000","7.1831","1.9041"
"431.7000","7.1885","1.9044"
"432.0000","7.1929","1.8983"
"432.3000","7.1986","1.8994"
"432.6000","7.2030","1.8946"
"432.9000","7.2082","1.8926"
"433.2000","7.2135","1.8924"
"433.5000","7.2179","1.8875"
"433.8000","7.2235","1.8886"
"434.1000","7.2280","1.8857"
"434.4000","7.2333","1.8851"
"434.7000","7.2384","1.8849"
"435.0000","7.2430","1.8802"
"435.3000","7.2483","1.8796"
"435.6000","7.2531","1.8775"
"435.9000","7.2583","1.8760"
"436.2000","7.2633","1.8750"
"436.5000","7.2683","1.8730"
"436.8000","7.2732","1.8704"
"437.1000","7.2781","1.8687"
"437.4000","7.2833","1.8682"
"437.7000","7.2880","1.8654"
"438.0000","7.2936","1.8671"
"438.3000","7.2981","1.8646"
"438.6000","7.3032","1.8637"
"438.9000","7.3083","1.8636"
"439.2000","7.3129","1.8602"
"439.5000","7.3188","1.8632"
"439.8000","7.3230","1.8586"
"440.1000","7.3282","1.8577"
"440.4000","7.3334","1.8578"
"440.7000","7.3379","1.8544"
"441.0000","7.3437","1.8568"
"441.3000","7.3479","1.8529"
"441.6000","7.3533","1.8532"
"441.9000","7.3585","1.8532"
"442.2000","7.3629","1.8488"
"442.5000","7.3684","1.8502"
"442.5090","7.3686","1.8499"