File: DestructiveTests/Tensile/FLAX TENSILE.is_qtest_Exports/FLAX TENSILE_3.csv
Time,Displacement,Force
(s),(mm),(kN)
"0.0000","0.0000","0.0115"
"0.3000","0.0003","0.0128"
"0.6000","0.0074","0.0483"
"0.9000","0.0120","0.0716"
"1.2000","0.0178","0.0991"
"1.5000","0.0220","0.1192"
"1.8000","0.0274","0.1454"
"2.1000","0.0321","0.1668"
"2.4000","0.0371","0.1892"
"2.7000","0.0427","0.2154"
"3.0000","0.0470","0.2344"
"3.3000","0.0522","0.2583"
"3.6000","0.0573","0.2817"
"3.9000","0.0622","0.3026"
"4.2000","0.0675","0.3275"
"4.5000","0.0721","0.3460"
"4.8000","0.0771","0.3677"
"5.1000","0.0823","0.3908"
"5.4000","0.0871","0.4109"
"5.7000","0.0923","0.4327"
"6.0000","0.0973","0.4537"
"6.3000","0.1021","0.4744"
"6.6000","0.1074","0.4966"
"6.9000","0.1123","0.5156"
"7.2000","0.1172","0.5356"
"7.5000","0.1224","0.5558"
"7.8000","0.1271","0.5745"
"8.1000","0.1323","0.5938"
"8.4000","0.1373","0.6141"
"8.7000","0.1421","0.6316"
"9.0000","0.1473","0.6518"
"9.3000","0.1522","0.6696"
"9.6000","0.1572","0.6883"
"9.9000","0.1624","0.7068"
"10.2000","0.1672","0.7234"
"10.5000","0.1722","0.7395"
"10.8000","0.1774","0.7569"
"11.1000","0.1820","0.7710"
"11.4000","0.1874","0.7888"
"11.7000","0.1921","0.8040"
"12.0000","0.1970","0.8187"
"12.3000","0.2026","0.8361"
"12.6000","0.2070","0.8483"
"12.9000","0.2125","0.8645"
"13.2000","0.2172","0.8772"
"13.5000","0.2220","0.8894"
"13.8000","0.2277","0.9058"
"14.1000","0.2319","0.9139"
"14.4000","0.2375","0.9289"
"14.7000","0.2422","0.9395"
"15.0000","0.2471","0.9507"
"15.3000","0.2526","0.9647"
"15.6000","0.2569","0.9724"
"15.9000","0.2624","0.9846"
"16.2000","0.2672","0.9937"
"16.5000","0.2723","1.0050"
"16.8000","0.2774","1.0147"
"17.1000","0.2820","1.0212"
"17.4000","0.2872","1.0299"
"17.7000","0.2921","1.0369"
"18.0000","0.2975","1.0460"
"18.3000","0.3024","1.0515"
"18.6000","0.3074","1.0568"
"18.9000","0.3122","1.0607"
"19.2000","0.3171","1.0648"
"19.5000","0.3225","1.0721"
"19.8000","0.3271","1.0756"
"20.1000","0.3325","1.0834"
"20.4000","0.3371","1.0870"
"20.7000","0.3420","1.0914"
"21.0000","0.3476","1.1000"
"21.3000","0.3519","1.1023"
"21.6000","0.3577","1.1105"
"21.9000","0.3621","1.1131"
"22.2000","0.3670","1.1172"
"22.5000","0.3727","1.1258"
"22.8000","0.3769","1.1269"
"23.1000","0.3825","1.1353"
"23.4000","0.3872","1.1389"
"23.7000","0.3922","1.1434"
"24.0000","0.3976","1.1505"
"24.3000","0.4020","1.1525"
"24.6000","0.4074","1.1600"
"24.9000","0.4123","1.1645"
"25.2000","0.4173","1.1697"
"25.5000","0.4223","1.1755"
"25.8000","0.4271","1.1811"
"26.1000","0.4322","1.1874"
"26.4000","0.4372","1.1939"
"26.7000","0.4423","1.2011"
"27.0000","0.4472","1.2071"
"27.3000","0.4524","1.2140"
"27.6000","0.4573","1.2197"
"27.9000","0.4621","1.2248"
"28.2000","0.4673","1.2325"
"28.5000","0.4720","1.2391"
"28.8000","0.4776","1.2493"
"29.1000","0.4822","1.2535"
"29.4000","0.4870","1.2605"
"29.7000","0.4925","1.2699"
"30.0000","0.4970","1.2743"
"30.3000","0.5027","1.2865"
"30.6000","0.5071","1.2919"
"30.9000","0.5121","1.2987"
"31.2000","0.5175","1.3081"
"31.5000","0.5219","1.3124"
"31.8000","0.5276","1.3233"
"32.1000","0.5321","1.3288"
"32.4000","0.5372","1.3376"
"32.7000","0.5426","1.3476"
"33.0000","0.5470","1.3521"
"33.3000","0.5524","1.3633"
"33.6000","0.5571","1.3702"
"33.9000","0.5623","1.3782"
"34.2000","0.5675","1.3868"
"34.5000","0.5721","1.3936"
"34.8000","0.5772","1.4030"
"35.1000","0.5822","1.4108"
"35.4000","0.5874","1.4201"
"35.7000","0.5923","1.4285"
"36.0000","0.5974","1.4382"
"36.3000","0.6022","1.4455"
"36.6000","0.6072","1.4538"
"36.9000","0.6124","1.4629"
"37.2000","0.6170","1.4683"
"37.5000","0.6227","1.4816"
"37.8000","0.6272","1.4882"
"38.1000","0.6322","1.4964"
"38.4000","0.6374","1.5059"
"38.7000","0.6419","1.5115"
"39.0000","0.6478","1.5251"
"39.3000","0.6521","1.5311"
"39.6000","0.6571","1.5386"
"39.9000","0.6624","1.5483"
"40.2000","0.6669","1.5548"
"40.5000","0.6727","1.5679"
"40.8000","0.6771","1.5733"
"41.1000","0.6822","1.5832"
"41.4000","0.6875","1.5931"
"41.7000","0.6920","1.5987"
"42.0000","0.6975","1.6102"
"42.3000","0.7021","1.6161"
"42.6000","0.7073","1.6258"
"42.9000","0.7124","1.6350"
"43.2000","0.7171","1.6424"
"43.5000","0.7222","1.6519"
"43.8000","0.7272","1.6599"
"44.1000","0.7322","1.6687"
"44.4000","0.7373","1.6781"
"44.7000","0.7425","1.6873"
"45.0000","0.7471","1.6937"
"45.3000","0.7522","1.7015"
"45.6000","0.7573","1.7098"
"45.9000","0.7621","1.7173"
"46.2000","0.7677","1.7296"
"46.5000","0.7721","1.7336"
"46.8000","0.7771","1.7422"
"47.1000","0.7823","1.7517"
"47.4000","0.7869","1.7581"
"47.7000","0.7928","1.7718"
"48.0000","0.7971","1.7760"
"48.3000","0.8022","1.7833"
"48.6000","0.8074","1.7929"
"48.9000","0.8118","1.7984"
"49.2000","0.8176","1.8105"
"49.5000","0.8220","1.8163"
"49.8000","0.8272","1.8255"
"50.1000","0.8325","1.8342"
"50.4000","0.8370","1.8399"
"50.7000","0.8425","1.8511"
"51.0000","0.8470","1.8559"
"51.3000","0.8523","1.8647"
"51.6000","0.8574","1.8733"
"51.9000","0.8622","1.8801"
"52.2000","0.8672","1.8878"
"52.5000","0.8721","1.8950"
"52.8000","0.8772","1.9035"
"53.1000","0.8823","1.9112"
"53.4000","0.8875","1.9209"
"53.7000","0.8922","1.9276"
"54.0000","0.8972","1.9350"
"54.3000","0.9023","1.9435"
"54.6000","0.9070","1.9497"
"54.9000","0.9128","1.9613"
"55.2000","0.9171","1.9662"
"55.5000","0.9222","1.9740"
"55.8000","0.9273","1.9824"
"56.1000","0.9319","1.9877"
"56.4000","0.9378","1.9986"
"56.7000","0.9420","2.0023"
"57.0000","0.9473","2.0114"
"57.3000","0.9523","2.0182"
"57.6000","0.9569","2.0225"
"57.9000","0.9627","2.0339"
"58.2000","0.9669","2.0375"
"58.5000","0.9723","2.0466"
"58.8000","0.9773","2.0532"
"59.1000","0.9821","2.0590"
"59.4000","0.9875","2.0687"
"59.7000","0.9921","2.0731"
"60.0000","0.9973","2.0805"
"60.3000","1.0023","2.0875"
"60.6000","1.0072","2.0934"
"60.9000","1.0123","2.0999"
"61.2000","1.0171","2.1066"
"61.5000","1.0223","2.1150"
"61.8000","1.0272","2.1217"
"62.1000","1.0325","2.1294"
"62.4000","1.0372","2.1350"
"62.7000","1.0423","2.1426"
"63.0000","1.0472","2.1488"
"63.3000","1.0520","2.1545"
"63.6000","1.0578","2.1664"
"63.9000","1.0620","2.1698"
"64.2000","1.0674","2.1783"
"64.5000","1.0722","2.1843"
"64.8000","1.0769","2.1891"
"65.1000","1.0829","2.2016"
"65.4000","1.0870","2.2051"
"65.7000","1.0924","2.2139"
"66.0000","1.0973","2.2203"
"66.3000","1.1020","2.2258"
"66.6000","1.1078","2.2365"
"66.9000","1.1119","2.2398"
"67.2000","1.1173","2.2485"
"67.5000","1.1223","2.2560"
"67.8000","1.1271","2.2616"
"68.1000","1.1325","2.2704"
"68.4000","1.1370","2.2748"
"68.7000","1.1423","2.2835"
"69.0000","1.1473","2.2898"
"69.3000","1.1523","2.2968"
"69.6000","1.1573","2.3044"
"69.9000","1.1621","2.3101"
"70.2000","1.1673","2.3181"
"70.5000","1.1722","2.3253"
"70.8000","1.1775","2.3338"
"71.1000","1.1822","2.3380"
"71.4000","1.1873","2.3448"
"71.7000","1.1922","2.3508"
"72.0000","1.1970","2.3563"
"72.3000","1.2026","2.3666"
"72.6000","1.2070","2.3700"
"72.9000","1.2124","2.3775"
"73.2000","1.2171","2.3835"
"73.5000","1.2219","2.3885"
"73.8000","1.2277","2.3992"
"74.1000","1.2320","2.4019"
"74.4000","1.2374","2.4105"
"74.7000","1.2421","2.4151"
"75.0000","1.2469","2.4200"
"75.3000","1.2527","2.4298"
"75.6000","1.2569","2.4314"
"75.9000","1.2624","2.4405"
"76.2000","1.2673","2.4468"
"76.5000","1.2721","2.4516"
"76.8000","1.2776","2.4590"
"77.1000","1.2820","2.4622"
"77.4000","1.2874","2.4691"
"77.7000","1.2923","2.4741"
"78.0000","1.2972","2.4789"
"78.3000","1.3024","2.4858"
"78.6000","1.3071","2.4898"
"78.9000","1.3123","2.4962"
"79.2000","1.3172","2.5008"
"79.5000","1.3225","2.5065"
"79.8000","1.3273","2.5095"
"80.1000","1.3324","2.5146"
"80.4000","1.3373","2.5197"
"80.7000","1.3420","2.5235"
"81.0000","1.3476","2.5309"
"81.3000","1.3521","2.5328"
"81.6000","1.3574","2.5383"
"81.9000","1.3622","2.5422"
"82.2000","1.3669","2.5448"
"82.5000","1.3729","2.5541"
"82.8000","1.3771","2.5547"
"83.1000","1.3826","2.5618"
"83.4000","1.3872","2.5646"
"83.7000","1.3918","2.5670"
"84.0000","1.3978","2.5764"
"84.3000","1.4019","2.5765"
"84.6000","1.4076","2.5835"
"84.9000","1.4123","2.5863"
"85.2000","1.4171","2.5892"
"85.5000","1.4227","2.5972"
"85.8000","1.4269","2.5980"
"86.1000","1.4323","2.6042"
"86.4000","1.4373","2.6079"
"86.7000","1.4422","2.6115"
"87.0000","1.4474","2.6168"
"87.3000","1.4522","2.6195"
"87.6000","1.4574","2.6245"
"87.9000","1.4622","2.6269"
"88.2000","1.4675","2.6325"
"88.5000","1.4722","2.6351"
"88.8000","1.4774","2.6402"
"89.1000","1.4822","2.6434"
"89.4000","1.4870","2.6464"
"89.7000","1.4926","2.6537"
"90.0000","1.4970","2.6542"
"90.3000","1.5027","2.6605"
"90.6000","1.5072","2.6613"
"90.9000","1.5120","2.6636"
"91.2000","1.5177","2.6698"
"91.5000","1.5219","2.6694"
"91.8000","1.5276","2.6749"
"92.1000","1.5321","2.6759"
"92.4000","1.5370","2.6775"
"92.7000","1.5427","2.6843"
"93.0000","1.5469","2.6825"
"93.3000","1.5525","2.6883"
"93.6000","1.5573","2.6892"
"93.9000","1.5622","2.6913"
"94.2000","1.5676","2.6955"
"94.5000","1.5720","2.6943"
"94.8000","1.5774","2.6984"
"95.1000","1.5822","2.6997"
"95.4000","1.5873","2.7022"
"95.7000","1.5924","2.7052"
"96.0000","1.5972","2.7064"
"96.3000","1.6023","2.7086"
"96.6000","1.6072","2.7106"
"96.9000","1.6124","2.7148"
"97.2000","1.6172","2.7166"
"97.5000","1.6225","2.7207"
"97.8000","1.6271","2.7213"
"98.1000","1.6321","2.7231"
"98.4000","1.6374","2.7271"
"98.7000","1.6420","2.7269"
"99.0000","1.6476","2.7322"
"99.3000","1.6521","2.7317"
"99.6000","1.6570","2.7336"
"99.9000","1.6626","2.7383"
"100.2000","1.6669","2.7364"
"100.5000","1.6727","2.7424"
"100.8000","1.6771","2.7420"
"101.1000","1.6821","2.7439"
"101.4000","1.6876","2.7476"
"101.7000","1.6919","2.7458"
"102.0000","1.6975","2.7500"
"102.3000","1.7021","2.7493"
"102.6000","1.7072","2.7512"
"102.9000","1.7126","2.7546"
"103.2000","1.7170","2.7533"
"103.5000","1.7224","2.7567"
"103.8000","1.7271","2.7569"
"104.1000","1.7323","2.7589"
"104.4000","1.7373","2.7607"
"104.7000","1.7423","2.7616"
"105.0000","1.7472","2.7619"
"105.3000","1.7522","2.7627"
"105.6000","1.7574","2.7648"
"105.9000","1.7621","2.7651"
"106.2000","1.7675","2.7681"
"106.5000","1.7721","2.7671"
"106.8000","1.7771","2.7670"
"107.1000","1.7823","2.7681"
"107.4000","1.7870","2.7667"
"107.7000","1.7927","2.7705"
"108.0000","1.7971","2.7673"
"108.3000","1.8021","2.7672"
"108.6000","1.8074","2.7683"
"108.9000","1.8119","2.7656"
"109.2000","1.8177","2.7689"
"109.5000","1.8220","2.7649"
"109.8000","1.8271","2.7643"
"110.1000","1.8324","2.7654"
"110.4000","1.8369","2.7611"
"110.7000","1.8426","2.7631"
"111.0000","1.8471","2.7589"
"111.3000","1.8523","2.7576"
"111.6000","1.8575","2.7570"
"111.9000","1.8620","2.7517"
"112.2000","1.8674","2.7507"
"112.5000","1.8721","2.7468"
"112.8000","1.8772","2.7446"
"113.1000","1.8823","2.7420"
"113.4000","1.8873","2.7382"
"113.7000","1.8922","2.7345"
"114.0000","1.8972","2.7303"
"114.3000","1.9023","2.7269"
"114.6000","1.9072","2.7233"
"114.9000","1.9126","2.7213"
"115.2000","1.9171","2.7149"
"115.5000","1.9221","2.7114"
"115.8000","1.9272","2.7078"
"116.1000","1.9320","2.7025"
"116.4000","1.9378","2.7022"
"116.7000","1.9421","2.6949"
"117.0000","1.9472","2.6912"
"117.3000","1.9524","2.6874"
"117.6000","1.9569","2.6798"
"117.9000","1.9628","2.6797"
"118.2000","1.9670","2.6714"
"118.5000","1.9722","2.6677"
"118.8000","1.9774","2.6646"
"119.1000","1.9818","2.6576"
"119.4000","1.9876","2.6569"
"119.7000","1.9920","2.6500"
"120.0000","1.9973","2.6474"
"120.3000","2.0026","2.6438"
"120.6000","2.0070","2.6355"
"120.9000","2.0124","2.6330"
"121.2000","2.0171","2.6270"
"121.5000","2.0223","2.6225"
"121.8000","2.0275","2.6178"
"122.1000","2.0322","2.6099"
"122.4000","2.0372","2.6046"
"122.7000","2.0422","2.5996"
"123.0000","2.0473","2.5948"
"123.3000","2.0522","2.5884"
"123.6000","2.0575","2.5852"
"123.9000","2.0621","2.5778"
"124.2000","2.0673","2.5732"
"124.5000","2.0722","2.5675"
"124.8000","2.0770","2.5605"
"125.1000","2.0828","2.5592"
"125.4000","2.0871","2.5508"
"125.7000","2.0923","2.5461"
"126.0000","2.0974","2.5408"
"126.3000","2.1019","2.5326"
"126.6000","2.1078","2.5319"
"126.9000","2.1120","2.5222"
"127.2000","2.1173","2.5179"
"127.5000","2.1225","2.5128"
"127.8000","2.1269","2.5055"
"128.1000","2.1326","2.5037"
"128.4000","2.1370","2.4957"
"128.7000","2.1423","2.4921"
"129.0000","2.1475","2.4877"
"129.3000","2.1521","2.4791"
"129.6000","2.1573","2.4749"
"129.9000","2.1620","2.4684"
"130.2000","2.1672","2.4637"
"130.5000","2.1724","2.4581"
"130.8000","2.1773","2.4517"
"131.1000","2.1824","2.4450"
"131.4000","2.1871","2.4362"
"131.7000","2.1923","2.4308"
"132.0000","2.1971","2.4241"
"132.3000","2.2026","2.4199"
"132.6000","2.2071","2.4108"
"132.9000","2.2123","2.4053"
"133.2000","2.2172","2.3978"
"133.5000","2.2219","2.3903"
"133.8000","2.2278","2.3883"
"134.1000","2.2320","2.3775"
"134.4000","2.2374","2.3732"
"134.7000","2.2423","2.3677"
"135.0000","2.2469","2.3596"
"135.3000","2.2529","2.3586"
"135.6000","2.2570","2.3470"
"135.9000","2.2624","2.3431"
"136.2000","2.2673","2.3376"
"136.5000","2.2719","2.3315"
"136.8000","2.2777","2.3306"
"137.1000","2.2819","2.3207"
"137.4000","2.2873","2.3170"
"137.7000","2.2924","2.3121"
"138.0000","2.2971","2.3056"
"138.3000","2.3025","2.3005"
"138.6000","2.3071","2.2920"
"138.9000","2.3123","2.2879"
"139.2000","2.3173","2.2828"
"139.5000","2.3223","2.2779"
"139.8000","2.3272","2.2727"
"140.1000","2.3323","2.2684"
"140.4000","2.3372","2.2643"
"140.7000","2.3421","2.2597"
"141.0000","2.3476","2.2574"
"141.3000","2.3522","2.2508"
"141.6000","2.3574","2.2476"
"141.9000","2.3621","2.2414"
"142.2000","2.3669","2.2351"
"142.5000","2.3727","2.2339"
"142.8000","2.3770","2.2254"
"143.1000","2.3824","2.2223"
"143.4000","2.3871","2.2160"
"143.7000","2.3919","2.2093"
"144.0000","2.3978","2.2077"
"144.3000","2.4019","2.1958"
"144.6000","2.4074","2.1918"
"144.9000","2.4122","2.1855"
"145.2000","2.4170","2.1786"
"145.5000","2.4226","2.1760"
"145.8000","2.4269","2.1671"
"146.1000","2.4324","2.1629"
"146.4000","2.4374","2.1563"
"146.7000","2.4422","2.1498"
"147.0000","2.4475","2.1467"
"147.3000","2.4520","2.1402"
"147.6000","2.4572","2.1367"
"147.9000","2.4623","2.1325"
"148.2000","2.4673","2.1285"
"148.5000","2.4723","2.1247"
"148.8000","2.4772","2.1213"
"149.1000","2.4823","2.1183"
"149.4000","2.4871","2.1140"
"149.7000","2.4925","2.1125"
"150.0000","2.4971","2.1070"
"150.3000","2.5024","2.1042"
"150.6000","2.5072","2.1002"
"150.9000","2.5120","2.0953"
"151.2000","2.5176","2.0953"
"151.5000","2.5221","2.0898"
"151.8000","2.5276","2.0891"
"152.1000","2.5322","2.0854"
"152.4000","2.5369","2.0803"
"152.7000","2.5427","2.0822"
"153.0000","2.5469","2.0764"
"153.3000","2.5526","2.0773"
"153.6000","2.5572","2.0738"
"153.9000","2.5620","2.0702"
"154.2000","2.5677","2.0720"
"154.5000","2.5719","2.0667"
"154.8000","2.5774","2.0678"
"155.1000","2.5824","2.0657"
"155.4000","2.5871","2.0620"
"155.7000","2.5925","2.0620"
"156.0000","2.5970","2.0565"
"156.3000","2.6023","2.0566"
"156.6000","2.6073","2.0542"
"156.9000","2.6123","2.0526"
"157.2000","2.6173","2.0502"
"157.5000","2.6222","2.0481"
"157.8000","2.6272","2.0468"
"158.1000","2.6321","2.0439"
"158.4000","2.6375","2.0434"
"158.7000","2.6422","2.0395"
"159.0000","2.6475","2.0386"
"159.3000","2.6521","2.0345"
"159.6000","2.6570","2.0309"
"159.9000","2.6626","2.0320"
"160.2000","2.6670","2.0271"
"160.5000","2.6726","2.0273"
"160.8000","2.6771","2.0231"
"161.1000","2.6819","2.0197"
"161.4000","2.6877","2.0208"
"161.7000","2.6919","2.0156"
"162.0000","2.6976","2.0166"
"162.3000","2.7021","2.0132"
"162.6000","2.7071","2.0111"
"162.9000","2.7126","2.0127"
"163.2000","2.7169","2.0069"
"163.5000","2.7225","2.0072"
"163.8000","2.7273","2.0036"
"164.1000","2.7322","2.0004"
"164.4000","2.7375","1.9996"
"164.7000","2.7420","1.9948"
"165.0000","2.7473","1.9944"
"165.3000","2.7522","1.9924"
"165.6000","2.7573","1.9909"
"165.9000","2.7623","1.9896"
"166.2000","2.7673","1.9877"
"166.5000","2.7722","1.9849"
"166.8000","2.7772","1.9823"
"167.1000","2.7825","1.9814"
"167.4000","2.7871","1.9769"
"167.7000","2.7926","1.9768"
"168.0000","2.7970","1.9720"
"168.3000","2.8021","1.9690"
"168.6000","2.8075","1.9685"
"168.9000","2.8120","1.9638"
"169.2000","2.8177","1.9658"
"169.5000","2.8221","1.9604"
"169.8000","2.8271","1.9576"
"170.1000","2.8326","1.9587"
"170.4000","2.8369","1.9525"
"170.7000","2.8427","1.9540"
"171.0000","2.8471","1.9488"
"171.3000","2.8521","1.9466"
"171.6000","2.8575","1.9463"
"171.9000","2.8619","1.9411"
"172.2000","2.8675","1.9415"
"172.5000","2.8721","1.9371"
"172.8000","2.8772","1.9344"
"173.1000","2.8824","1.9330"
"173.4000","2.8870","1.9287"
"173.7000","2.8923","1.9281"
"174.0000","2.8971","1.9255"
"174.3000","2.9022","1.9241"
"174.6000","2.9073","1.9226"
"174.9000","2.9124","1.9215"
"175.2000","2.9172","1.9191"
"175.5000","2.9222","1.9170"
"175.8000","2.9273","1.9153"
"176.1000","2.9321","1.9115"
"176.4000","2.9376","1.9114"
"176.7000","2.9421","1.9069"
"177.0000","2.9471","1.9043"
"177.3000","2.9524","1.9035"
"177.6000","2.9569","1.8983"
"177.9000","2.9628","1.8999"
"178.2000","2.9671","1.8944"
"178.5000","2.9721","1.8924"
"178.8000","2.9775","1.8929"
"179.1000","2.9819","1.8882"
"179.4000","2.9876","1.8899"
"179.7000","2.9920","1.8852"
"180.0000","2.9972","1.8836"
"180.3000","3.0025","1.8838"
"180.6000","3.0069","1.8791"
"180.9000","3.0125","1.8803"
"181.2000","3.0171","1.8767"
"181.5000","3.0223","1.8752"
"181.8000","3.0275","1.8754"
"182.1000","3.0321","1.8717"
"182.4000","3.0373","1.8714"
"182.7000","3.0422","1.8696"
"183.0000","3.0473","1.8685"
"183.3000","3.0523","1.8669"
"183.6000","3.0573","1.8650"
"183.9000","3.0623","1.8637"
"184.2000","3.0671","1.8613"
"184.5000","3.0723","1.8604"
"184.8000","3.0771","1.8576"
"185.1000","3.0826","1.8575"
"185.4000","3.0871","1.8536"
"185.7000","3.0921","1.8514"
"186.0000","3.0973","1.8506"
"186.3000","3.1019","1.8453"
"186.6000","3.1078","1.8482"
"186.9000","3.1121","1.8406"
"187.2000","3.1172","1.8385"
"187.5000","3.1225","1.8382"
"187.8000","3.1269","1.8324"
"188.1000","3.1328","1.8349"
"188.4000","3.1370","1.8293"
"188.7000","3.1423","1.8286"
"189.0000","3.1475","1.8276"
"189.3000","3.1519","1.8219"
"189.6000","3.1575","1.8232"
"189.9000","3.1620","1.8183"
"190.2000","3.1673","1.8183"
"190.5000","3.1725","1.8173"
"190.8000","3.1771","1.8122"
"191.1000","3.1823","1.8113"
"191.4000","3.1871","1.8087"
"191.7000","3.1923","1.8075"
"192.0000","3.1974","1.8063"
"192.3000","3.2024","1.8045"
"192.6000","3.2072","1.8016"
"192.9000","3.2122","1.7989"
"193.2000","3.2173","1.7963"
"193.5000","3.2221","1.7927"
"193.8000","3.2277","1.7931"
"194.1000","3.2321","1.7876"
"194.4000","3.2373","1.7859"
"194.7000","3.2423","1.7840"
"195.0000","3.2469","1.7798"
"195.3000","3.2529","1.7822"
"195.6000","3.2570","1.7758"
"195.9000","3.2623","1.7736"
"196.2000","3.2674","1.7712"
"196.5000","3.2719","1.7635"
"196.8000","3.2777","1.7642"
"197.1000","3.2820","1.7570"
"197.4000","3.2873","1.7547"
"197.7000","3.2924","1.7520"
"198.0000","3.2969","1.7460"
"198.3000","3.3025","1.7462"
"198.6000","3.3070","1.7406"
"198.9000","3.3123","1.7382"
"199.2000","3.3175","1.7356"
"199.5000","3.3221","1.7309"
"199.8000","3.3273","1.7284"
"200.1000","3.3321","1.7248"
"200.4000","3.3373","1.7219"
"200.7000","3.3423","1.7189"
"201.0000","3.3474","1.7162"
"201.3000","3.3522","1.7122"
"201.6000","3.3572","1.7095"
"201.9000","3.3622","1.7080"
"202.2000","3.3671","1.7055"
"202.5000","3.3724","1.7053"
"202.8000","3.3770","1.7014"
"203.1000","3.3823","1.7007"
"203.4000","3.3872","1.6976"
"203.7000","3.3919","1.6941"
"204.0000","3.3978","1.6960"
"204.3000","3.4021","1.6903"
"204.6000","3.4074","1.6889"
"204.9000","3.4123","1.6869"
"205.2000","3.4169","1.6829"
"205.5000","3.4227","1.6856"
"205.8000","3.4269","1.6803"
"206.1000","3.4324","1.6817"
"206.4000","3.4374","1.6809"
"206.7000","3.4420","1.6777"
"207.0000","3.4477","1.6805"
"207.3000","3.4520","1.6756"
"207.6000","3.4573","1.6761"
"207.9000","3.4623","1.6755"
"208.2000","3.4672","1.6733"
"208.5000","3.4724","1.6737"
"208.8000","3.4771","1.6711"
"209.1000","3.4823","1.6712"
"209.4000","3.4872","1.6695"
"209.7000","3.4923","1.6687"
"210.0000","3.4973","1.6670"
"210.3000","3.5024","1.6662"
"210.6000","3.5073","1.6652"
"210.9000","3.5121","1.6635"
"211.2000","3.5175","1.6663"
"211.5000","3.5221","1.6636"
"211.8000","3.5274","1.6652"
"212.1000","3.5322","1.6642"
"212.4000","3.5369","1.6626"
"212.7000","3.5428","1.6670"
"213.0000","3.5470","1.6624"
"213.3000","3.5525","1.6640"
"213.6000","3.5572","1.6627"
"213.9000","3.5619","1.6593"
"214.2000","3.5677","1.6628"
"214.5000","3.5719","1.6581"
"214.8000","3.5774","1.6593"
"215.1000","3.5822","1.6576"
"215.4000","3.5870","1.6546"
"215.7000","3.5926","1.6563"
"216.0000","3.5970","1.6519"
"216.3000","3.6023","1.6516"
"216.6000","3.6074","1.6516"
"216.9000","3.6122","1.6496"
"217.2000","3.6174","1.6489"
"217.5000","3.6221","1.6466"
"217.8000","3.6272","1.6456"
"218.1000","3.6322","1.6441"
"218.4000","3.6374","1.6438"
"218.7000","3.6422","1.6410"
"219.0000","3.6473","1.6400"
"219.3000","3.6522","1.6379"
"219.6000","3.6571","1.6363"
"219.9000","3.6625","1.6379"
"220.2000","3.6670","1.6345"
"220.5000","3.6725","1.6353"
"220.8000","3.6772","1.6324"
"221.1000","3.6820","1.6296"
"221.4000","3.6877","1.6319"
"221.7000","3.6920","1.6266"
"222.0000","3.6976","1.6273"
"222.3000","3.7022","1.6245"
"222.6000","3.7070","1.6205"
"222.9000","3.7126","1.6220"
"223.2000","3.7169","1.6168"
"223.5000","3.7225","1.6176"
"223.8000","3.7272","1.6140"
"224.1000","3.7321","1.6116"
"224.4000","3.7375","1.6121"
"224.7000","3.7419","1.6077"
"225.0000","3.7475","1.6079"
"225.3000","3.7523","1.6053"
"225.6000","3.7573","1.6016"
"225.9000","3.7624","1.6001"
"226.2000","3.7671","1.5953"
"226.5000","3.7723","1.5942"
"226.8000","3.7772","1.5922"
"227.1000","3.7824","1.5910"
"227.4000","3.7873","1.5882"
"227.7000","3.7924","1.5861"
"228.0000","3.7972","1.5839"
"228.3000","3.8021","1.5816"
"228.6000","3.8073","1.5822"
"228.9000","3.8120","1.5792"
"229.2000","3.8176","1.5814"
"229.5000","3.8221","1.5786"
"229.8000","3.8270","1.5754"
"230.1000","3.8324","1.5772"
"230.4000","3.8370","1.5736"
"230.7000","3.8427","1.5747"
"231.0000","3.8472","1.5710"
"231.3000","3.8520","1.5683"
"231.6000","3.8575","1.5699"
"231.9000","3.8618","1.5649"
"232.2000","3.8677","1.5673"
"232.5000","3.8722","1.5648"
"232.8000","3.8770","1.5632"
"233.1000","3.8825","1.5662"
"233.4000","3.8869","1.5622"
"233.7000","3.8924","1.5639"
"234.0000","3.8972","1.5628"
"234.3000","3.9022","1.5613"
"234.6000","3.9075","1.5620"
"234.9000","3.9121","1.5585"
"235.2000","3.9173","1.5579"
"235.5000","3.9222","1.5558"
"235.8000","3.9273","1.5549"
"236.1000","3.9323","1.5543"
"236.4000","3.9373","1.5541"
"236.7000","3.9422","1.5533"
"237.0000","3.9471","1.5517"
"237.3000","3.9523","1.5527"
"237.6000","3.9570","1.5507"
"237.9000","3.9626","1.5528"
"238.2000","3.9672","1.5502"
"238.5000","3.9720","1.5486"
"238.8000","3.9775","1.5507"
"239.1000","3.9820","1.5476"
"239.4000","3.9877","1.5512"
"239.7000","3.9922","1.5479"
"240.0000","3.9971","1.5470"
"240.3000","4.0026","1.5499"
"240.6000","4.0069","1.5454"
"240.9000","4.0126","1.5489"
"241.2000","4.0171","1.5463"
"241.5000","4.0222","1.5455"
"241.8000","4.0276","1.5471"
"242.1000","4.0319","1.5430"
"242.4000","4.0374","1.5451"
"242.7000","4.0422","1.5441"
"243.0000","4.0473","1.5438"
"243.3000","4.0525","1.5448"
"243.6000","4.0572","1.5428"
"243.9000","4.0624","1.5436"
"244.2000","4.0672","1.5423"
"244.5000","4.0723","1.5419"
"244.8000","4.0772","1.5410"
"245.1000","4.0824","1.5407"
"245.4000","4.0872","1.5389"
"245.7000","4.0921","1.5373"
"246.0000","4.0973","1.5370"
"246.3000","4.1020","1.5346"
"246.6000","4.1076","1.5366"
"246.9000","4.1121","1.5332"
"247.2000","4.1172","1.5323"
"247.5000","4.1224","1.5323"
"247.8000","4.1269","1.5285"
"248.1000","4.1327","1.5308"
"248.4000","4.1370","1.5265"
"248.7000","4.1421","1.5246"
"249.0000","4.1475","1.5253"
"249.3000","4.1519","1.5210"
"249.6000","4.1576","1.5238"
"249.9000","4.1620","1.5196"
"250.2000","4.1672","1.5185"
"250.5000","4.1727","1.5200"
"250.8000","4.1770","1.5148"
"251.1000","4.1824","1.5152"
"251.4000","4.1871","1.5127"
"251.7000","4.1922","1.5117"
"252.0000","4.1975","1.5114"
"252.3000","4.2021","1.5085"
"252.6000","4.2072","1.5075"
"252.9000","4.2121","1.5058"
"253.2000","4.2173","1.5040"
"253.5000","4.2222","1.5014"
"253.8000","4.2274","1.5004"
"254.1000","4.2323","1.4971"
"254.4000","4.2372","1.4945"
"254.7000","4.2423","1.4923"
"255.0000","4.2470","1.4887"
"255.3000","4.2528","1.4900"
"255.6000","4.2571","1.4845"
"255.9000","4.2621","1.4818"
"256.2000","4.2674","1.4815"
"256.5000","4.2719","1.4754"
"256.8000","4.2778","1.4776"
"257.1000","4.2821","1.4715"
"257.4000","4.2871","1.4687"
"257.7000","4.2926","1.4695"
"258.0000","4.2969","1.4643"
"258.3000","4.3027","1.4658"
"258.6000","4.3071","1.4613"
"258.9000","4.3123","1.4597"
"259.2000","4.3176","1.4597"
"259.5000","4.3220","1.4540"
"259.8000","4.3275","1.4547"
"260.1000","4.3320","1.4506"
"260.4000","4.3373","1.4504"
"260.7000","4.3424","1.4490"
"261.0000","4.3472","1.4459"
"261.3000","4.3523","1.4446"
"261.6000","4.3571","1.4409"
"261.9000","4.3623","1.4406"
"262.2000","4.3673","1.4387"
"262.5000","4.3726","1.4387"
"262.8000","4.3772","1.4359"
"263.1000","4.3820","1.4330"
"263.4000","4.3873","1.4328"
"263.7000","4.3920","1.4283"
"264.0000","4.3978","1.4298"
"264.3000","4.4021","1.4242"
"264.6000","4.4072","1.4227"
"264.9000","4.4124","1.4223"
"265.2000","4.4169","1.4178"
"265.5000","4.4228","1.4215"
"265.8000","4.4270","1.4156"
"266.1000","4.4322","1.4151"
"266.4000","4.4374","1.4150"
"266.7000","4.4419","1.4106"
"267.0000","4.4477","1.4133"
"267.3000","4.4520","1.4087"
"267.6000","4.4573","1.4092"
"267.9000","4.4625","1.4093"
"268.2000","4.4670","1.4058"
"268.5000","4.4726","1.4080"
"268.8000","4.4770","1.4048"
"269.1000","4.4823","1.4056"
"269.4000","4.4874","1.4062"
"269.7000","4.4922","1.4051"
"270.0000","4.4972","1.4058"
"270.3000","4.5021","1.4059"
"270.6000","4.5073","1.4068"
"270.9000","4.5122","1.4069"
"271.2000","4.5174","1.4078"
"271.5000","4.5221","1.4068"
"271.8000","4.5273","1.4076"
"272.1000","4.5322","1.4076"
"272.4000","4.5370","1.4063"
"272.7000","4.5427","1.4094"
"273.0000","4.5471","1.4067"
"273.3000","4.5523","1.4072"
"273.6000","4.5572","1.4068"
"273.9000","4.5619","1.4049"
"274.2000","4.5678","1.4080"
"274.5000","4.5720","1.4038"
"274.8000","4.5774","1.4048"
"275.1000","4.5824","1.4048"
"275.4000","4.5870","1.4019"
"275.7000","4.5927","1.4053"
"276.0000","4.5971","1.4020"
"276.3000","4.6023","1.4029"
"276.6000","4.6074","1.4027"
"276.9000","4.6120","1.3996"
"277.2000","4.6176","1.4016"
"277.5000","4.6220","1.3973"
"277.8000","4.6272","1.3973"
"278.1000","4.6323","1.3973"
"278.4000","4.6372","1.3960"
"278.7000","4.6423","1.3955"
"279.0000","4.6472","1.3933"
"279.3000","4.6522","1.3921"
"279.6000","4.6572","1.3909"
"279.9000","4.6625","1.3908"
"280.2000","4.6672","1.3879"
"280.5000","4.6723","1.3871"
"280.8000","4.6772","1.3863"
"281.1000","4.6820","1.3848"
"281.4000","4.6876","1.3869"
"281.7000","4.6921","1.3836"
"282.0000","4.6974","1.3839"
"282.3000","4.7022","1.3818"
"282.6000","4.7069","1.3782"
"282.9000","4.7127","1.3805"
"283.2000","4.7170","1.3750"
"283.5000","4.7224","1.3752"
"283.8000","4.7272","1.3734"
"284.1000","4.7320","1.3707"
"284.4000","4.7376","1.3723"
"284.7000","4.7419","1.3681"
"285.0000","4.7474","1.3683"
"285.3000","4.7523","1.3669"
"285.6000","4.7571","1.3641"
"285.9000","4.7626","1.3657"
"286.2000","4.7670","1.3613"
"286.5000","4.7723","1.3628"
"286.8000","4.7773","1.3628"
"287.1000","4.7822","1.3615"
"287.4000","4.7874","1.3620"
"287.7000","4.7922","1.3595"
"288.0000","4.7972","1.3586"
"288.3000","4.8021","1.3565"
"288.6000","4.8074","1.3566"
"288.9000","4.8122","1.3544"
"289.2000","4.8174","1.3537"
"289.5000","4.8222","1.3518"
"289.8000","4.8269","1.3499"
"290.1000","4.8325","1.3523"
"290.4000","4.8370","1.3484"
"290.7000","4.8425","1.3498"
"291.0000","4.8472","1.3467"
"291.3000","4.8519","1.3441"
"291.6000","4.8577","1.3463"
"291.9000","4.8619","1.3414"
"292.2000","4.8676","1.3423"
"292.5000","4.8722","1.3394"
"292.8000","4.8769","1.3360"
"293.1000","4.8827","1.3389"
"293.4000","4.8869","1.3333"
"293.7000","4.8925","1.3344"
"294.0000","4.8973","1.3327"
"294.3000","4.9021","1.3297"
"294.6000","4.9077","1.3315"
"294.9000","4.9119","1.3268"
"295.2000","4.9173","1.3274"
"295.5000","4.9223","1.3264"
"295.8000","4.9272","1.3253"
"296.1000","4.9323","1.3247"
"296.4000","4.9371","1.3222"
"296.7000","4.9422","1.3212"
"297.0000","4.9472","1.3199"
"297.3000","4.9525","1.3198"
"297.6000","4.9572","1.3178"
"297.9000","4.9625","1.3175"
"298.2000","4.9672","1.3146"
"298.5000","4.9721","1.3124"
"298.8000","4.9775","1.3134"
"299.1000","4.9820","1.3101"
"299.4000","4.9876","1.3117"
"299.7000","4.9921","1.3090"
"300.0000","4.9969","1.3073"
"300.3000","5.0027","1.3099"
"300.6000","5.0069","1.3058"
"300.9000","5.0126","1.3076"
"301.2000","5.0171","1.3056"
"301.5000","5.0220","1.3041"
"301.8000","5.0277","1.3066"
"302.1000","5.0319","1.3024"
"302.4000","5.0375","1.3038"
"302.7000","5.0422","1.3025"
"303.0000","5.0471","1.3011"
"303.3000","5.0525","1.3026"
"303.6000","5.0569","1.2995"
"303.9000","5.0623","1.3002"
"304.2000","5.0672","1.2995"
"304.5000","5.0723","1.2987"
"304.8000","5.0774","1.2983"
"305.1000","5.0822","1.2968"
"305.4000","5.0872","1.2960"
"305.7000","5.0922","1.2958"
"306.0000","5.0975","1.2967"
"306.3000","5.1022","1.2949"
"306.6000","5.1075","1.2955"
"306.9000","5.1121","1.2938"
"307.2000","5.1170","1.2923"
"307.5000","5.1225","1.2944"
"307.8000","5.1270","1.2916"
"308.1000","5.1326","1.2941"
"308.4000","5.1371","1.2916"
"308.7000","5.1420","1.2904"
"309.0000","5.1477","1.2930"
"309.3000","5.1519","1.2876"
"309.6000","5.1577","1.2908"
"309.9000","5.1620","1.2869"
"310.2000","5.1671","1.2855"
"310.5000","5.1727","1.2893"
"310.8000","5.1769","1.2843"
"311.1000","5.1825","1.2871"
"311.4000","5.1871","1.2846"
"311.7000","5.1923","1.2838"
"312.0000","5.1976","1.2845"
"312.3000","5.2020","1.2802"
"312.6000","5.2073","1.2810"
"312.9000","5.2121","1.2790"
"313.2000","5.2173","1.2785"
"313.5000","5.2223","1.2775"
"313.8000","5.2272","1.2761"
"314.1000","5.2321","1.2755"
"314.4000","5.2371","1.2751"
"314.7000","5.2424","1.2752"
"315.0000","5.2472","1.2732"
"315.3000","5.2526","1.2742"
"315.6000","5.2571","1.2720"
"315.9000","5.2621","1.2714"
"316.2000","5.2674","1.2721"
"316.5000","5.2720","1.2695"
"316.8000","5.2777","1.2724"
"317.1000","5.2820","1.2695"
"317.4000","5.2871","1.2686"
"317.7000","5.2925","1.2698"
"318.0000","5.2969","1.2670"
"318.3000","5.3027","1.2692"
"318.6000","5.3070","1.2659"
"318.9000","5.3121","1.2645"
"319.2000","5.3176","1.2662"
"319.5000","5.3219","1.2620"
"319.8000","5.3275","1.2638"
"320.1000","5.3321","1.2608"
"320.4000","5.3372","1.2597"
"320.7000","5.3425","1.2601"
"321.0000","5.3471","1.2554"
"321.3000","5.3524","1.2562"
"321.6000","5.3571","1.2537"
"321.9000","5.3623","1.2525"
"322.2000","5.3673","1.2519"
"322.5000","5.3723","1.2508"
"322.8000","5.3772","1.2501"
"323.1000","5.3822","1.2490"
"323.4000","5.3874","1.2496"
"323.7000","5.3922","1.2475"
"324.0000","5.3975","1.2485"
"324.3000","5.4021","1.2456"
"324.6000","5.4071","1.2441"
"324.9000","5.4124","1.2444"
"325.2000","5.4170","1.2410"
"325.5000","5.4228","1.2441"
"325.8000","5.4271","1.2396"
"326.1000","5.4322","1.2377"
"326.4000","5.4374","1.2381"
"326.7000","5.4419","1.2338"
"327.0000","5.4478","1.2374"
"327.3000","5.4520","1.2324"
"327.6000","5.4572","1.2312"
"327.9000","5.4624","1.2321"
"328.2000","5.4669","1.2277"
"328.5000","5.4726","1.2299"
"328.8000","5.4770","1.2263"
"329.1000","5.4823","1.2253"
"329.4000","5.4876","1.2255"
"329.7000","5.4920","1.2211"
"330.0000","5.4974","1.2219"
"330.3000","5.5021","1.2192"
"330.6000","5.5073","1.2189"
"330.9000","5.5123","1.2182"
"331.2000","5.5172","1.2169"
"331.5000","5.5222","1.2159"
"331.8000","5.5271","1.2148"
"332.1000","5.5323","1.2148"
"332.4000","5.5372","1.2135"
"332.7000","5.5425","1.2138"
"333.0000","5.5472","1.2119"
"333.3000","5.5522","1.2104"
"333.6000","5.5574","1.2116"
"333.9000","5.5620","1.2093"
"334.2000","5.5678","1.2132"
"334.5000","5.5721","1.2098"
"334.8000","5.5772","1.2096"
"335.1000","5.5824","1.2109"
"335.4000","5.5869","1.2083"
"335.7000","5.5928","1.2120"
"336.0000","5.5970","1.2083"
"336.3000","5.6022","1.2085"
"336.6000","5.6074","1.2103"
"336.9000","5.6118","1.2064"
"337.2000","5.6176","1.2096"
"337.5000","5.6220","1.2073"
"337.8000","5.6273","1.2077"
"338.1000","5.6326","1.2089"
"338.4000","5.6370","1.2060"
"338.7000","5.6424","1.2075"
"339.0000","5.6471","1.2055"
"339.3000","5.6523","1.2057"
"339.6000","5.6574","1.2059"
"339.9000","5.6623","1.2048"
"340.2000","5.6673","1.2042"
"340.5000","5.6721","1.2022"
"340.8000","5.6772","1.2017"
"341.1000","5.6821","1.2005"
"341.4000","5.6876","1.2020"
"341.7000","5.6921","1.1994"
"342.0000","5.6972","1.1988"
"342.3000","5.7023","1.1989"
"342.6000","5.7069","1.1962"
"342.9000","5.7128","1.2003"
"343.2000","5.7171","1.1963"
"343.5000","5.7223","1.1970"
"343.8000","5.7274","1.1976"
"344.1000","5.7318","1.1941"
"344.4000","5.7378","1.1992"
"344.7000","5.7419","1.1941"
"345.0000","5.7474","1.1952"
"345.3000","5.7524","1.1961"
"345.6000","5.7569","1.1934"
"345.9000","5.7627","1.1969"
"346.2000","5.7669","1.1926"
"346.5000","5.7724","1.1933"
"346.8000","5.7774","1.1933"
"347.1000","5.7821","1.1911"
"347.4000","5.7874","1.1921"
"347.7000","5.7920","1.1903"
"348.0000","5.7972","1.1906"
"348.3000","5.8023","1.1909"
"348.6000","5.8073","1.1904"
"348.9000","5.8123","1.1897"
"349.2000","5.8173","1.1889"
"349.5000","5.8223","1.1891"
"349.8000","5.8272","1.1871"
"350.1000","5.8325","1.1889"
"350.4000","5.8371","1.1852"
"350.7000","5.8425","1.1858"
"351.0000","5.8472","1.1849"
"351.3000","5.8520","1.1832"
"351.6000","5.8576","1.1867"
"351.9000","5.8620","1.1834"
"352.2000","5.8674","1.1848"
"352.5000","5.8722","1.1839"
"352.8000","5.8769","1.1818"
"353.1000","5.8827","1.1856"
"353.4000","5.8870","1.1812"
"353.7000","5.8924","1.1824"
"354.0000","5.8973","1.1815"
"354.3000","5.9020","1.1791"
"354.6000","5.9076","1.1810"
"354.9000","5.9120","1.1771"
"355.2000","5.9173","1.1766"
"355.5000","5.9224","1.1768"
"355.8000","5.9271","1.1737"
"356.1000","5.9324","1.1744"
"356.4000","5.9371","1.1715"
"356.7000","5.9423","1.1706"
"357.0000","5.9473","1.1700"
"357.3000","5.9522","1.1689"
"357.6000","5.9573","1.1684"
"357.9000","5.9623","1.1677"
"358.2000","5.9673","1.1673"
"358.5000","5.9721","1.1663"
"358.8000","5.9774","1.1677"
"359.1000","5.9821","1.1659"
"359.4000","5.9874","1.1664"
"359.7000","5.9922","1.1652"
"360.0000","5.9970","1.1632"
"360.3000","6.0026","1.1658"
"360.6000","6.0070","1.1622"
"360.9000","6.0125","1.1634"
"361.2000","6.0173","1.1614"
"361.5000","6.0219","1.1582"
"361.8000","6.0277","1.1615"
"362.1000","6.0319","1.1561"
"362.4000","6.0376","1.1573"
"362.7000","6.0423","1.1550"
"363.0000","6.0470","1.1519"
"363.3000","6.0526","1.1546"
"363.6000","6.0569","1.1498"
"363.9000","6.0624","1.1511"
"364.2000","6.0673","1.1505"
"364.5000","6.0722","1.1479"
"364.8000","6.0774","1.1488"
"365.1000","6.0820","1.1460"
"365.4000","6.0873","1.1460"
"365.7000","6.0923","1.1455"
"366.0000","6.0973","1.1443"
"366.3000","6.1023","1.1429"
"366.6000","6.1072","1.1412"
"366.9000","6.1123","1.1403"
"367.2000","6.1172","1.1382"
"367.5000","6.1225","1.1389"
"367.8000","6.1271","1.1359"
"368.1000","6.1325","1.1369"
"368.4000","6.1371","1.1353"
"368.7000","6.1420","1.1337"
"369.0000","6.1476","1.1359"
"369.3000","6.1519","1.1318"
"369.6000","6.1576","1.1342"
"369.9000","6.1622","1.1315"
"370.2000","6.1669","1.1292"
"370.5000","6.1726","1.1323"
"370.8000","6.1769","1.1290"
"371.1000","6.1825","1.1314"
"371.4000","6.1872","1.1299"
"371.7000","6.1920","1.1280"
"372.0000","6.1976","1.1301"
"372.3000","6.2019","1.1261"
"372.6000","6.2074","1.1265"
"372.9000","6.2123","1.1256"
"373.2000","6.2172","1.1234"
"373.5000","6.2225","1.1246"
"373.8000","6.2270","1.1210"
"374.1000","6.2323","1.1215"
"374.4000","6.2373","1.1207"
"374.7000","6.2423","1.1203"
"375.0000","6.2472","1.1191"
"375.3000","6.2522","1.1186"
"375.6000","6.2572","1.1188"
"375.9000","6.2621","1.1175"
"376.2000","6.2675","1.1186"
"376.5000","6.2721","1.1164"
"376.8000","6.2775","1.1174"
"377.1000","6.2821","1.1153"
"377.4000","6.2870","1.1142"
"377.7000","6.2925","1.1172"
"378.0000","6.2969","1.1147"
"378.3000","6.3027","1.1179"
"378.6000","6.3072","1.1153"
"378.9000","6.3119","1.1133"
"379.2000","6.3177","1.1173"
"379.5000","6.3219","1.1130"
"379.8000","6.3276","1.1170"
"380.1000","6.3321","1.1148"
"380.4000","6.3371","1.1142"
"380.7000","6.3426","1.1164"
"381.0000","6.3468","1.1125"
"381.3000","6.3525","1.1153"
"381.6000","6.3572","1.1139"
"381.9000","6.3623","1.1135"
"382.2000","6.3674","1.1145"
"382.5000","6.3721","1.1127"
"382.8000","6.3773","1.1136"
"383.1000","6.3822","1.1132"
"383.4000","6.3873","1.1138"
"383.7000","6.3923","1.1135"
"384.0000","6.3974","1.1131"
"384.3000","6.4023","1.1124"
"384.6000","6.4072","1.1111"
"384.9000","6.4124","1.1114"
"385.2000","6.4171","1.1091"
"385.5000","6.4226","1.1111"
"385.8000","6.4271","1.1078"
"386.1000","6.4321","1.1076"
"386.4000","6.4374","1.1086"
"386.7000","6.4419","1.1058"
"387.0000","6.4477","1.1086"
"387.3000","6.4521","1.1053"
"387.6000","6.4571","1.1036"
"387.9000","6.4625","1.1050"
"388.2000","6.4669","1.0999"
"388.5000","6.4726","1.1024"
"388.8000","6.4770","1.0991"
"389.1000","6.4822","1.0984"
"389.4000","6.4875","1.1004"
"389.7000","6.4920","1.0960"
"390.0000","6.4975","1.0980"
"390.3000","6.5021","1.0951"
"390.6000","6.5072","1.0940"
"390.9000","6.5125","1.0942"
"391.2000","6.5171","1.0905"
"391.5000","6.5223","1.0906"
"391.8000","6.5272","1.0892"
"392.1000","6.5323","1.0889"
"392.1080","6.5324","1.0889"