File: DMA/PASA5050 - 1Hz(1).csv
Angular frequency,Step time,Temperature,Oscillation strain,Oscillation stress,Tan(delta),Storage modulus,Loss modulus
rad/s,s,Celsius,%,MPa,,MPa,MPa
6.28319,880.004,40.07,0.0915892,1.58650,0.0335911,1731.21,58.1534
6.28319,886.004,40.14,0.0916124,1.58665,0.0336382,1730.94,58.2258
6.28319,892.004,40.23,0.0915817,1.58599,0.0335980,1730.80,58.1515
6.28319,898.004,40.34,0.0915774,1.58587,0.0335518,1730.75,58.0697
6.28319,904.004,40.47,0.0916027,1.58610,0.0335769,1730.52,58.1056
6.28319,910.004,40.61,0.0915929,1.58570,0.0335842,1730.27,58.1098
6.28319,916.004,40.75,0.0915807,1.58538,0.0335827,1730.16,58.1034
6.28319,922.004,40.91,0.0915984,1.58546,0.0335941,1729.91,58.1149
6.28319,928.004,41.07,0.0915979,1.58518,0.0336387,1729.61,58.1818
6.28319,934.004,41.25,0.0915851,1.58474,0.0336215,1729.37,58.1441
6.28319,940.004,41.43,0.0915933,1.58459,0.0336037,1729.05,58.1025
6.28319,946.004,41.62,0.0916006,1.58444,0.0336138,1728.75,58.1097
6.28319,952.004,41.81,0.0915879,1.58398,0.0336058,1728.49,58.0871
6.28319,958.004,42.01,0.0915902,1.58372,0.0335902,1728.16,58.0493
6.28319,964.004,42.22,0.0915959,1.58350,0.0336175,1727.81,58.0847
6.28319,970.004,42.43,0.0915942,1.58311,0.0336334,1727.42,58.0991
6.28319,976.004,42.65,0.0915896,1.58272,0.0336466,1727.08,58.1104
6.28319,982.004,42.86,0.0915958,1.58249,0.0336516,1726.71,58.1066
6.28319,988.004,43.06,0.0915960,1.58210,0.0336610,1726.28,58.1082
6.28319,994.004,43.26,0.0915904,1.58164,0.0336459,1725.89,58.0691
6.28319,1000.00,43.46,0.0915970,1.58134,0.0336737,1725.44,58.1018
6.28319,1006.00,43.69,0.0916010,1.58106,0.0336822,1725.05,58.1036
6.28319,1012.00,43.93,0.0915915,1.58049,0.0336463,1724.61,58.0267
6.28319,1018.00,44.19,0.0915942,1.58003,0.0336624,1724.06,58.0361
6.28319,1024.00,44.44,0.0915945,1.57958,0.0336676,1723.56,58.0280
6.28319,1030.00,44.69,0.0915958,1.57903,0.0336818,1722.94,58.0317
6.28319,1036.00,44.94,0.0915921,1.57848,0.0336828,1722.40,58.0153
6.28319,1042.00,45.19,0.0915943,1.57802,0.0336941,1721.86,58.0165
6.28319,1048.00,45.45,0.0915936,1.57755,0.0337370,1721.35,58.0732
6.28319,1054.00,45.70,0.0915949,1.57706,0.0337529,1720.79,58.0817
6.28319,1060.00,45.96,0.0915980,1.57646,0.0337584,1720.08,58.0671
6.28319,1066.00,46.22,0.0915966,1.57585,0.0337767,1719.44,58.0772
6.28319,1072.00,46.48,0.0915918,1.57518,0.0337824,1718.80,58.0653
6.28319,1078.00,46.75,0.0915981,1.57466,0.0338350,1718.11,58.1323
6.28319,1084.00,47.02,0.0916012,1.57407,0.0338624,1717.41,58.1556
6.28319,1090.00,47.31,0.0915909,1.57326,0.0338709,1716.72,58.1468
6.28319,1096.00,47.60,0.0915886,1.57265,0.0339208,1716.09,58.2111
6.28319,1102.00,47.90,0.0916032,1.57227,0.0339494,1715.40,58.2368
6.28319,1108.00,48.20,0.0915993,1.57156,0.0339958,1714.70,58.2925
6.28319,1114.00,48.49,0.0915918,1.57081,0.0340328,1714.02,58.3329
6.28319,1120.00,48.80,0.0915916,1.57016,0.0340507,1713.31,58.3393
6.28319,1126.00,49.08,0.0915956,1.56955,0.0340454,1712.58,58.3053
6.28319,1132.00,49.34,0.0915989,1.56895,0.0340834,1711.86,58.3458
6.28319,1138.00,49.56,0.0915984,1.56822,0.0341234,1711.07,58.3874
6.28319,1144.00,49.76,0.0915948,1.56750,0.0341192,1710.34,58.3555
6.28319,1150.00,49.95,0.0915991,1.56681,0.0341786,1709.52,58.4289
6.28319,1156.00,50.15,0.0915952,1.56599,0.0342074,1708.69,58.4497
6.28319,1162.00,50.43,0.0915979,1.56519,0.0342364,1707.76,58.4677
6.28319,1168.00,50.80,0.0916015,1.56433,0.0342881,1706.76,58.5213
6.28319,1174.00,51.24,0.0915980,1.56331,0.0343378,1705.70,58.5700
6.28319,1180.00,51.57,0.0915887,1.56243,0.0342876,1704.92,58.4576
6.28319,1186.00,51.71,0.0916060,1.56182,0.0343278,1703.92,58.4920
6.28319,1192.00,52.03,0.0915986,1.56080,0.0343742,1702.95,58.5375
6.28319,1198.00,52.39,0.0915956,1.56006,0.0343741,1702.20,58.5115
6.28319,1204.00,52.76,0.0916050,1.55923,0.0343616,1701.12,58.4531
6.28319,1210.00,53.05,0.0915957,1.55807,0.0343556,1700.02,58.4053
6.28319,1216.00,53.30,0.0915968,1.55708,0.0343826,1698.93,58.4136
6.28319,1222.00,53.56,0.0915996,1.55615,0.0344082,1697.86,58.4201
6.28319,1228.00,53.89,0.0915986,1.55514,0.0344552,1696.77,58.4626
6.28319,1234.00,54.24,0.0916031,1.55419,0.0344634,1695.65,58.4377
6.28319,1240.00,54.59,0.0916029,1.55309,0.0345169,1694.45,58.4873
6.28319,1246.00,54.89,0.0915931,1.55191,0.0345304,1693.34,58.4719
6.28319,1252.00,55.14,0.0916022,1.55104,0.0345924,1692.22,58.5381
6.28319,1258.00,55.43,0.0916025,1.54996,0.0346553,1691.04,58.6034
6.28319,1264.00,55.69,0.0915917,1.54869,0.0346774,1689.85,58.5995
6.28319,1270.00,56.04,0.0916047,1.54777,0.0347566,1688.60,58.6901
6.28319,1276.00,56.31,0.0916056,1.54657,0.0347722,1687.27,58.6701
6.28319,1282.00,56.46,0.0915929,1.54522,0.0348139,1686.04,58.6975
6.28319,1288.00,56.91,0.0915990,1.54418,0.0348645,1684.78,58.7390
6.28319,1294.00,57.23,0.0916083,1.54302,0.0349136,1683.34,58.7716
6.28319,1300.00,57.40,0.0915970,1.54128,0.0349959,1681.65,58.8508
6.28319,1306.00,57.90,0.0915820,1.53983,0.0349520,1680.34,58.7312
6.28319,1312.00,57.76,0.0916199,1.53907,0.0349582,1678.82,58.6885
6.28319,1318.00,58.41,0.0916419,1.53759,0.0351565,1676.79,58.9502
6.28319,1324.00,58.45,0.0915655,1.53522,0.0350637,1675.61,58.7529
6.28319,1330.00,59.09,0.0916030,1.53421,0.0351435,1673.82,58.8238
6.28319,1336.00,59.29,0.0916119,1.53279,0.0352478,1672.10,58.9378
6.28319,1342.00,59.65,0.0915998,1.53076,0.0353446,1670.10,59.0291
6.28319,1348.00,60.19,0.0915737,1.52901,0.0353181,1668.66,58.9340
6.28319,1354.00,60.12,0.0916245,1.52821,0.0354038,1666.86,59.0131
6.28319,1360.00,60.79,0.0916343,1.52662,0.0355652,1664.94,59.2138
6.28319,1366.00,60.30,0.0915996,1.52419,0.0356562,1662.91,59.2931
6.28319,1372.00,61.12,0.0916047,1.52241,0.0358732,1660.86,59.5803
6.28319,1378.00,61.21,0.0915669,1.52037,0.0358312,1659.33,59.4558
6.28319,1384.00,61.68,0.0916274,1.51912,0.0360346,1656.85,59.7040
6.28319,1390.00,62.32,0.0915760,1.51663,0.0360665,1655.07,59.6927
6.28319,1396.00,62.38,0.0916153,1.51519,0.0361691,1652.78,59.7797
6.28319,1402.00,62.91,0.0916261,1.51339,0.0362747,1650.62,59.8756
6.28319,1408.00,62.95,0.0915990,1.51063,0.0363398,1648.09,59.8913
6.28319,1414.00,63.73,0.0915829,1.50880,0.0362266,1646.38,59.6429
6.28319,1420.00,63.66,0.0916818,1.50787,0.0365784,1643.58,60.1197
6.28319,1426.00,63.96,0.0915973,1.50447,0.0368232,1641.37,60.4405
6.28319,1432.00,64.24,0.0915325,1.50159,0.0365696,1639.41,59.9524
6.28319,1438.00,64.54,0.0916269,1.50100,0.0367256,1637.06,60.1222
6.28319,1444.00,64.87,0.0916763,1.49910,0.0371007,1634.09,60.6257
6.28319,1450.00,65.15,0.0915632,1.49494,0.0371907,1631.55,60.6787
6.28319,1456.00,65.39,0.0915941,1.49316,0.0372229,1629.06,60.6385
6.28319,1462.00,65.61,0.0916903,1.49172,0.0375362,1625.76,61.0250
6.28319,1468.00,65.92,0.0916106,1.48746,0.0377077,1622.52,61.1817
6.28319,1474.00,66.11,0.0915738,1.48438,0.0377317,1619.81,61.1180
6.28319,1480.00,66.39,0.0916777,1.48297,0.0380169,1616.42,61.4512
6.28319,1486.00,66.56,0.0916464,1.47932,0.0383262,1612.98,61.8193
6.28319,1492.00,66.87,0.0915888,1.47529,0.0384836,1609.58,61.9425
6.28319,1498.00,67.12,0.0916408,1.47286,0.0388033,1606.00,62.3180
6.28319,1504.00,67.47,0.0916450,1.46909,0.0392034,1601.80,62.7959
6.28319,1510.00,67.78,0.0915649,1.46439,0.0394040,1598.05,62.9694
6.28319,1516.00,68.20,0.0915994,1.46135,0.0397115,1594.11,63.3045
6.28319,1522.00,68.54,0.0916287,1.45815,0.0399101,1590.10,63.4613
6.28319,1528.00,68.97,0.0915743,1.45360,0.0402080,1586.06,63.7724
6.28319,1534.00,69.37,0.0915793,1.44987,0.0405521,1581.89,64.1489
6.28319,1540.00,69.79,0.0916261,1.44661,0.0410298,1577.49,64.7242
6.28319,1546.00,70.14,0.0916180,1.44221,0.0413720,1572.82,65.0705
6.28319,1552.00,70.49,0.0916203,1.43798,0.0416678,1568.14,65.3412
6.28319,1558.00,70.75,0.0916573,1.43421,0.0421139,1563.36,65.8394
6.28319,1564.00,71.01,0.0916743,1.42999,0.0426271,1558.45,66.4321
6.28319,1570.00,71.23,0.0916532,1.42528,0.0431496,1553.64,67.0390
6.28319,1576.00,71.42,0.0916647,1.42083,0.0437656,1548.55,67.7732
6.28319,1582.00,71.69,0.0916693,1.41591,0.0444756,1543.06,68.6285
6.28319,1588.00,71.94,0.0916352,1.41040,0.0451492,1537.57,69.4203
6.28319,1594.00,72.26,0.0916213,1.40536,0.0458735,1532.27,70.2904
6.28319,1600.00,72.59,0.0916409,1.40091,0.0466305,1527.03,71.2062
6.28319,1606.00,72.98,0.0916184,1.39550,0.0474426,1521.45,72.1816
6.28319,1612.00,73.37,0.0916045,1.39017,0.0483011,1515.82,73.2156
6.28319,1618.00,73.78,0.0916312,1.38530,0.0491947,1510.00,74.2838
6.28319,1624.00,74.17,0.0916445,1.38008,0.0501448,1504.01,75.4184
6.28319,1630.00,74.55,0.0916209,1.37450,0.0511361,1498.25,76.6144
6.28319,1636.00,74.88,0.0916262,1.36932,0.0521556,1492.44,77.8390
6.28319,1642.00,75.18,0.0916556,1.36430,0.0532400,1486.41,79.1362
6.28319,1648.00,75.45,0.0916609,1.35870,0.0543528,1480.13,80.4493
6.28319,1654.00,75.66,0.0916361,1.35272,0.0555064,1473.91,81.8116
6.28319,1660.00,75.89,0.0916387,1.34747,0.0566125,1468.06,83.1107
6.28319,1666.00,76.12,0.0916797,1.34235,0.0578425,1461.73,84.5499
6.28319,1672.00,76.32,0.0916776,1.33627,0.0591444,1455.03,86.0571
6.28319,1678.00,76.55,0.0916419,1.32964,0.0604908,1448.26,87.6066
6.28319,1684.00,76.82,0.0916563,1.32376,0.0618977,1441.50,89.2258
6.28319,1690.00,77.11,0.0916846,1.31804,0.0633994,1434.70,90.9590
6.28319,1696.00,77.37,0.0916604,1.31133,0.0649473,1427.63,92.7208
6.28319,1702.00,77.69,0.0916450,1.30449,0.0665324,1420.28,94.4944
6.28319,1708.00,78.03,0.0916627,1.29835,0.0681565,1413.16,96.3161
6.28319,1714.00,78.37,0.0916815,1.29188,0.0698892,1405.67,98.2413
6.28319,1720.00,78.69,0.0916515,1.28450,0.0717062,1397.91,100.239
6.28319,1726.00,79.02,0.0916449,1.27714,0.0735732,1389.82,102.253
6.28319,1732.00,79.35,0.0916745,1.27004,0.0755524,1381.44,104.371
6.28319,1738.00,79.66,0.0916744,1.26247,0.0776545,1372.99,106.619
6.28319,1744.00,79.98,0.0916527,1.25454,0.0798888,1364.45,109.004
6.28319,1750.00,80.29,0.0916587,1.24664,0.0820625,1355.53,111.238
6.28319,1756.00,80.60,0.0916818,1.23847,0.0844781,1346.04,113.711
6.28319,1762.00,80.89,0.0916834,1.22997,0.0870436,1336.49,116.333
6.28319,1768.00,81.18,0.0916745,1.22096,0.0897142,1326.52,119.007
6.28319,1774.00,81.47,0.0916770,1.21164,0.0924781,1316.02,121.703
6.28319,1780.00,81.76,0.0916919,1.20219,0.0954225,1305.19,124.545
6.28319,1786.00,82.04,0.0916952,1.19279,0.0984999,1294.55,127.513
6.28319,1792.00,82.32,0.0917050,1.18259,0.101707,1282.94,130.484
6.28319,1798.00,82.60,0.0917017,1.17173,0.105135,1270.75,133.601
6.28319,1804.00,82.87,0.0917022,1.16068,0.108775,1258.28,136.869
6.28319,1810.00,83.14,0.0917103,1.14951,0.112571,1245.55,140.212
6.28319,1816.00,83.42,0.0917197,1.13771,0.116512,1232.09,143.553
6.28319,1822.00,83.73,0.0917230,1.12543,0.120664,1218.15,146.987
6.28319,1828.00,84.02,0.0917219,1.11307,0.124990,1204.15,150.508
6.28319,1834.00,84.36,0.0917344,1.10082,0.129341,1190.09,153.927
6.28319,1840.00,84.74,0.0917508,1.08733,0.134004,1174.59,157.400
6.28319,1846.00,86.24,0.0917249,1.07387,0.138769,1159.64,160.922
6.28319,1852.00,86.64,0.0917223,1.06012,0.143816,1144.02,164.528
6.28319,1858.00,87.13,0.0917067,1.04396,0.149653,1125.83,168.484
6.28319,1864.00,86.63,0.0917584,1.02983,0.155189,1109.05,172.112
6.28319,1870.00,87.33,0.0917123,1.01647,0.160039,1094.40,175.146
6.28319,1876.00,86.77,0.0917289,1.00294,0.165162,1078.76,178.170
6.28319,1882.00,87.10,0.0918380,0.987544,0.171481,1059.84,181.742
6.28319,1888.00,87.09,0.0918611,0.970369,0.178447,1039.92,185.570
6.28319,1894.00,87.21,0.0917841,0.952328,0.185391,1020.19,189.134
6.28319,1900.00,87.39,0.0917627,0.934130,0.192609,999.611,192.534
6.28319,1906.00,87.62,0.0917778,0.916059,0.200169,978.712,195.908
6.28319,1912.00,87.87,0.0917985,0.897491,0.208046,957.179,199.137
6.28319,1918.00,88.14,0.0918065,0.878402,0.216214,935.187,202.201
6.28319,1924.00,88.42,0.0918142,0.858805,0.224736,912.610,205.096
6.28319,1930.00,88.72,0.0918086,0.838774,0.233621,889.656,207.842
6.28319,1936.00,89.02,0.0918091,0.818200,0.242839,866.027,210.305
6.28319,1942.00,89.31,0.0918135,0.797178,0.252397,841.857,212.483
6.28319,1948.00,89.61,0.0918090,0.775863,0.262342,817.424,214.445
6.28319,1954.00,89.92,0.0918063,0.754014,0.272629,792.390,216.028
6.28319,1960.00,90.23,0.0918080,0.731830,0.283301,766.948,217.277
6.28319,1966.00,90.56,0.0918017,0.709402,0.294330,741.312,218.190
6.28319,1972.00,90.85,0.0917977,0.686644,0.305794,715.300,218.734
6.28319,1978.00,91.16,0.0917965,0.663721,0.317594,689.116,218.859
6.28319,1984.00,91.47,0.0917868,0.640667,0.329758,662.883,218.591
6.28319,1990.00,91.77,0.0917787,0.617515,0.342313,636.567,217.905
6.28319,1996.00,92.08,0.0917737,0.594358,0.355116,610.295,216.726
6.28319,2002.00,92.38,0.0917578,0.571223,0.368233,584.186,215.117
6.28319,2008.00,92.69,0.0917489,0.548210,0.381648,558.238,213.050
6.28319,2014.00,93.00,0.0917446,0.525562,0.395202,532.758,210.547
6.28319,2020.00,93.31,0.0917296,0.503148,0.408923,507.704,207.612
6.28319,2026.00,93.62,0.0917198,0.481191,0.422802,483.216,204.305
6.28319,2032.00,93.94,0.0917105,0.459624,0.436699,459.284,200.569
6.28319,2038.00,94.26,0.0916926,0.438524,0.450607,436.032,196.479
6.28319,2044.00,94.59,0.0916861,0.418150,0.464461,413.629,192.115
6.28319,2050.00,94.90,0.0916839,0.398525,0.478039,392.168,187.472
6.28319,2056.00,95.24,0.0916765,0.379683,0.491485,371.689,182.680
6.28319,2062.00,95.55,0.0916736,0.361235,0.505090,351.726,177.653
6.28319,2068.00,95.85,0.0916627,0.343394,0.518418,332.591,172.421
6.28319,2074.00,96.22,0.0916430,0.325873,0.531937,313.937,166.995
6.28319,2080.00,96.61,0.0916313,0.308858,0.545519,295.901,161.420
6.28319,2086.00,96.95,0.0916170,0.292655,0.558751,278.855,155.811
6.28319,2092.00,97.03,0.0916198,0.276357,0.572936,261.722,149.950
6.28319,2098.00,97.38,0.0916203,0.260422,0.586896,245.140,143.872
6.28319,2104.00,97.71,0.0915983,0.246273,0.599457,230.602,138.236
6.28319,2110.00,98.09,0.0916008,0.232277,0.612525,216.235,132.449
6.28319,2116.00,98.04,0.0915978,0.217842,0.627223,201.473,126.369
6.28319,2122.00,98.49,0.0916067,0.203616,0.641649,187.073,120.035
6.28319,2128.00,98.87,0.0915906,0.191947,0.653511,175.431,114.646
6.28319,2134.00,99.23,0.0915924,0.180455,0.666129,163.971,109.226
6.28319,2140.00,99.31,0.0915835,0.167973,0.681126,151.587,103.250
6.28319,2146.00,99.81,0.0915980,0.156935,0.694108,140.748,97.6943
6.28319,2152.00,100.18,0.0915866,0.147406,0.705310,131.524,92.7650
6.28319,2158.00,100.45,0.0915835,0.138076,0.717111,122.519,87.8596
6.28319,2164.00,100.86,0.0915713,0.128756,0.729278,113.606,82.8501
6.28319,2170.00,101.22,0.0915630,0.120470,0.739618,105.781,78.2378
6.28319,2176.00,101.57,0.0915660,0.112769,0.750018,98.5242,73.8950
6.28319,2182.00,102.47,0.0915711,0.105273,0.759940,91.5316,69.5585
6.28319,2188.00,103.70,0.0915411,0.0979478,0.768625,84.8346,65.2059
6.28319,2194.00,104.27,0.0915701,0.0923611,0.778135,79.6033,61.9421
6.28319,2200.00,105.06,0.0916082,0.0853769,0.782464,73.3989,57.4320
6.28319,2206.00,104.37,0.0915492,0.0826305,0.789593,70.8378,55.9331
6.28319,2212.00,104.80,0.0915993,0.0789307,0.791161,67.5775,53.4647
6.28319,2218.00,104.01,0.0915620,0.0747899,0.792952,64.0025,50.7509
6.28319,2224.00,105.78,0.0915896,0.0711431,0.795039,60.8016,48.3397
6.28319,2230.00,105.20,0.0915710,0.0666197,0.792791,57.0097,45.1968
6.28319,2236.00,105.12,0.0915431,0.0624182,0.791842,53.4552,42.3280
6.28319,2242.00,105.08,0.0915610,0.0584959,0.788273,50.1734,39.5503
6.28319,2248.00,105.24,0.0915854,0.0551582,0.784827,47.3772,37.1829
6.28319,2254.00,106.96,0.0916073,0.0526832,0.780057,45.3453,35.3720
6.28319,2260.00,107.31,0.0915538,0.0485386,0.762732,42.1541,32.1523
6.28319,2266.00,106.79,0.0915909,0.0476476,0.766199,41.2945,31.6398
6.28319,2272.00,107.29,0.0915817,0.0455852,0.754362,39.7370,29.9761
6.28319,2278.00,107.82,0.0915674,0.0444394,0.751359,38.8002,29.1529
6.28319,2284.00,107.49,0.0915663,0.0427801,0.745434,37.4582,27.9226
6.28319,2290.00,107.69,0.0916046,0.0412974,0.733641,36.3492,26.6673
6.28319,2296.00,108.24,0.0915616,0.0398198,0.724060,35.2253,25.5053
6.28319,2302.00,107.62,0.0915708,0.0384205,0.715997,34.1143,24.4257
6.28319,2308.00,108.49,0.0915737,0.0371474,0.704810,33.1575,23.3698
6.28319,2314.00,108.48,0.0915607,0.0352620,0.687910,31.7296,21.8271
6.28319,2320.00,107.80,0.0916087,0.0341215,0.676243,30.8543,20.8650
6.28319,2326.00,109.37,0.0915879,0.0330903,0.664493,30.0918,19.9958
6.28319,2332.00,109.35,0.0915584,0.0315818,0.645982,28.9740,18.7167
6.28319,2338.00,108.63,0.0916006,0.0304015,0.629096,28.0925,17.6729
6.28319,2344.00,110.17,0.0915900,0.0295702,0.617892,27.4653,16.9706
6.28319,2350.00,109.61,0.0915728,0.0281355,0.590186,26.4601,15.6164
6.28319,2356.00,110.50,0.0915892,0.0273200,0.578095,25.8242,14.9289
6.28319,2362.00,110.71,0.0915750,0.0264404,0.562128,25.1690,14.1482
6.28319,2368.00,110.85,0.0915922,0.0254773,0.537404,24.5020,13.1675
6.28319,2374.00,110.55,0.0915750,0.0247265,0.524772,23.9092,12.5469
6.28319,2380.00,111.98,0.0915963,0.0241692,0.513150,23.4761,12.0468
6.28319,2386.00,111.42,0.0915717,0.0232428,0.485862,22.8301,11.0923
6.28319,2392.00,112.25,0.0915887,0.0226597,0.473323,22.3623,10.5846
6.28319,2398.00,112.51,0.0915789,0.0220412,0.457236,21.8885,10.0082
6.28319,2404.00,111.73,0.0915958,0.0214062,0.436989,21.4149,9.35806
6.28319,2410.00,113.34,0.0915938,0.0209822,0.425953,21.0756,8.97720
6.28319,2416.00,113.44,0.0915813,0.0203267,0.402376,20.5909,8.28528
6.28319,2422.00,112.76,0.0915885,0.0199073,0.390393,20.2474,7.90442
6.28319,2428.00,114.11,0.0915988,0.0195733,0.380271,19.9732,7.59521
6.28319,2434.00,113.32,0.0915792,0.0190772,0.359588,19.6025,7.04882
6.28319,2440.00,114.74,0.0915921,0.0187414,0.349278,19.3173,6.74712
6.28319,2446.00,114.84,0.0915814,0.0183425,0.335063,18.9910,6.36318
6.28319,2452.00,114.39,0.0915968,0.0180142,0.321147,18.7249,6.01345
6.28319,2458.00,115.54,0.0915906,0.0177507,0.312940,18.4960,5.78813
6.28319,2464.00,115.14,0.0915749,0.0174170,0.295808,18.2382,5.39499
6.28319,2470.00,115.94,0.0915911,0.0171589,0.287220,18.0062,5.17174
6.28319,2476.00,116.27,0.0915868,0.0169016,0.277222,17.7835,4.92998
6.28319,2482.00,115.82,0.0916040,0.0166316,0.264793,17.5511,4.64741
6.28319,2488.00,117.12,0.0915835,0.0164615,0.257909,17.4048,4.48886
6.28319,2494.00,116.29,0.0915886,0.0161906,0.245077,17.1695,4.20784
6.28319,2500.00,117.78,0.0915834,0.0160109,0.238015,17.0072,4.04797
6.28319,2506.00,117.93,0.0915845,0.0158141,0.228053,16.8349,3.83926
6.28319,2512.00,117.30,0.0915984,0.0156172,0.219181,16.6543,3.65030
6.28319,2518.00,118.63,0.0915892,0.0154764,0.213161,16.5263,3.52276
6.28319,2524.00,117.83,0.0915815,0.0153014,0.202620,16.3752,3.31794
6.28319,2530.00,119.29,0.0915927,0.0151479,0.196828,16.2270,3.19394
6.28319,2536.00,119.43,0.0915883,0.0149979,0.188938,16.0907,3.04014
6.28319,2542.00,119.08,0.0916025,0.0148583,0.181359,15.9600,2.89449
6.28319,2548.00,120.12,0.0915845,0.0147419,0.176330,15.8520,2.79519
6.28319,2554.00,119.29,0.0915819,0.0146172,0.168256,15.7396,2.64828
6.28319,2560.00,120.95,0.0915965,0.0145064,0.163042,15.6309,2.54850
6.28319,2566.00,120.78,0.0915874,0.0143852,0.156158,15.5185,2.42333
6.28319,2572.00,121.03,0.0916011,0.0142874,0.150284,15.4242,2.31801
6.28319,2578.00,121.63,0.0915911,0.0141879,0.145992,15.3280,2.23777
6.28319,2584.00,120.86,0.0915918,0.0140944,0.139186,15.2414,2.12139
6.28319,2590.00,122.51,0.0915861,0.0140188,0.135041,15.1690,2.04843
6.28319,2596.00,121.74,0.0915846,0.0139238,0.128876,15.0785,1.94326
6.28319,2602.00,123.01,0.0915976,0.0138411,0.124485,14.9950,1.86665
6.28319,2608.00,123.08,0.0915881,0.0137699,0.120125,14.9272,1.79314
6.28319,2614.00,123.02,0.0916055,0.0136888,0.114832,14.8457,1.70475
6.28319,2620.00,123.88,0.0915848,0.0136526,0.111882,14.8147,1.65749
6.28319,2626.00,123.02,0.0915897,0.0135712,0.106463,14.7342,1.56864
6.28319,2632.00,124.71,0.0915882,0.0135206,0.103478,14.6840,1.51947
6.28319,2638.00,123.92,0.0915861,0.0134901,0.0986552,14.6583,1.44611
6.28319,2644.00,125.18,0.0915975,0.0134169,0.0952556,14.5816,1.38898
6.28319,2650.00,125.20,0.0915892,0.0133739,0.0918159,14.5408,1.33508
6.28319,2656.00,125.24,0.0915956,0.0133372,0.0881132,14.5048,1.27806
6.28319,2662.00,126.05,0.0915840,0.0133011,0.0852765,14.4708,1.23402
6.28319,2668.00,125.24,0.0915952,0.0132470,0.0816727,14.4146,1.17728
6.28319,2674.00,126.87,0.0915886,0.0132298,0.0791685,14.3997,1.14000
6.28319,2680.00,125.91,0.0915888,0.0131856,0.0758505,14.3552,1.08885
6.28319,2686.00,127.44,0.0915816,0.0131764,0.0733413,14.3491,1.05238
6.28319,2692.00,127.23,0.0915932,0.0131259,0.0703578,14.2953,1.00579
6.28319,2698.00,127.62,0.0916021,0.0131088,0.0677447,14.2779,0.967252
6.28319,2704.00,128.18,0.0915914,0.0130932,0.0658044,14.2644,0.938658
6.28319,2710.00,127.52,0.0915878,0.0130669,0.0629884,14.2389,0.896886
6.28319,2716.00,128.99,0.0915879,0.0130477,0.0611198,14.2195,0.869096
6.28319,2722.00,127.95,0.0915820,0.0130258,0.0587286,14.1986,0.833865
6.28319,2728.00,129.67,0.0915861,0.0130109,0.0567607,14.1834,0.805057
6.28319,2734.00,129.16,0.0915923,0.0129920,0.0546450,14.1635,0.773964
6.28319,2740.00,129.94,0.0915996,0.0129998,0.0533346,14.1719,0.755850
6.28319,2746.00,130.29,0.0915972,0.0129622,0.0513093,14.1327,0.725139
6.28319,2752.00,129.88,0.0915870,0.0129673,0.0497254,14.1410,0.703167
6.28319,2758.00,131.09,0.0915904,0.0129538,0.0482546,14.1268,0.681680
6.28319,2764.00,130.03,0.0915777,0.0129495,0.0467155,14.1250,0.659858
6.28319,2770.00,131.88,0.0915788,0.0129530,0.0452857,14.1296,0.639871
6.28319,2776.00,131.07,0.0915895,0.0129279,0.0436542,14.1016,0.615596
6.28319,2782.00,132.27,0.0915949,0.0129222,0.0425671,14.0952,0.599990
6.28319,2788.00,132.32,0.0915998,0.0129158,0.0411172,14.0884,0.579273
6.28319,2794.00,132.25,0.0915978,0.0129186,0.0399246,14.0924,0.562635
6.28319,2800.00,133.20,0.0915812,0.0129172,0.0392563,14.0938,0.553270
6.28319,2806.00,132.21,0.0915847,0.0129215,0.0378538,14.0987,0.533687
6.28319,2812.00,134.03,0.0915826,0.0129120,0.0370942,14.0891,0.522623
6.28319,2818.00,133.04,0.0915840,0.0129149,0.0358643,14.0926,0.505420
6.28319,2824.00,134.53,0.0915977,0.0129092,0.0350622,14.0848,0.493843
6.28319,2830.00,134.40,0.0915920,0.0128982,0.0343650,14.0740,0.483653
6.28319,2836.00,134.48,0.0916039,0.0129181,0.0332987,14.0943,0.469322
6.28319,2842.00,135.33,0.0915987,0.0128926,0.0331190,14.0673,0.465895
6.28319,2848.00,134.35,0.0915855,0.0129178,0.0320781,14.0974,0.452218
6.28319,2854.00,136.22,0.0915888,0.0129016,0.0314496,14.0794,0.442793
6.28319,2860.00,135.26,0.0915770,0.0129232,0.0310749,14.1051,0.438314
6.28319,2866.00,136.67,0.0915970,0.0129326,0.0300856,14.1127,0.424589
6.28319,2872.00,136.65,0.0915912,0.0129226,0.0295947,14.1028,0.417367
6.28319,2878.00,136.43,0.0915987,0.0129211,0.0289655,14.1003,0.408421
6.28319,2884.00,137.55,0.0915880,0.0129371,0.0289898,14.1194,0.409318
6.28319,2890.00,136.42,0.0915827,0.0129258,0.0282920,14.1081,0.399147
6.28319,2896.00,138.35,0.0915778,0.0129262,0.0278722,14.1095,0.393262
6.28319,2902.00,137.78,0.0915878,0.0129447,0.0273517,14.1284,0.386435
6.28319,2908.00,138.50,0.0916006,0.0129420,0.0268251,14.1236,0.378868
6.28319,2914.00,138.91,0.0916012,0.0129558,0.0267905,14.1386,0.378781
6.28319,2920.00,138.02,0.0916014,0.0129475,0.0260164,14.1299,0.367607
6.28319,2926.00,139.80,0.0915766,0.0129518,0.0262567,14.1382,0.371222
6.28319,2932.00,138.90,0.0915791,0.0129688,0.0258320,14.1566,0.365694
6.28319,2938.00,140.25,0.0915984,0.0129652,0.0255430,14.1498,0.361427
6.28319,2944.00,140.30,0.0915971,0.0129694,0.0252374,14.1547,0.357227
6.28319,2950.00,139.73,0.0916088,0.0129645,0.0248285,14.1476,0.351264
6.28319,2956.00,141.22,0.0915810,0.0129870,0.0249592,14.1765,0.353833
6.28319,2962.00,140.24,0.0915783,0.0129776,0.0245253,14.1668,0.347445
6.28319,2968.00,141.81,0.0915848,0.0129879,0.0245536,14.1770,0.348095
6.28319,2974.00,141.76,0.0915918,0.0130014,0.0241557,14.1908,0.342790
6.28319,2980.00,141.21,0.0916048,0.0130027,0.0239921,14.1903,0.340455
6.28319,2986.00,142.70,0.0915923,0.0130066,0.0239784,14.1964,0.340408
6.28319,2992.00,141.83,0.0915724,0.0130095,0.0235862,14.2028,0.334990
6.28319,2998.00,143.18,0.0915872,0.0130090,0.0233987,14.2001,0.332264
6.28319,3004.00,143.33,0.0915956,0.0130340,0.0232464,14.2260,0.330704
6.28319,3010.00,142.43,0.0916139,0.0130318,0.0234722,14.2208,0.333793
6.28319,3016.00,144.29,0.0915924,0.0130228,0.0231426,14.2144,0.328959
6.28319,3022.00,143.66,0.0915649,0.0130304,0.0233963,14.2269,0.332856
6.28319,3028.00,144.16,0.0915998,0.0130507,0.0226544,14.2438,0.322685
6.28319,3034.00,144.91,0.0916094,0.0130550,0.0228625,14.2470,0.325721
6.28319,3040.00,143.95,0.0915902,0.0130562,0.0229080,14.2513,0.326469
6.28319,3046.00,145.68,0.0915685,0.0130569,0.0225398,14.2556,0.321318
6.28319,3052.00,145.54,0.0915860,0.0130745,0.0229255,14.2719,0.327190
6.28319,3058.00,145.04,0.0916204,0.0130905,0.0221096,14.2842,0.315820
6.28319,3064.00,146.52,0.0915997,0.0130824,0.0227576,14.2784,0.324942
6.28319,3070.00,145.87,0.0915627,0.0130782,0.0226877,14.2797,0.323974
6.28319,3076.00,146.20,0.0915731,0.0131092,0.0224854,14.3120,0.321810
6.28319,3082.00,146.94,0.0916188,0.0131085,0.0219928,14.3041,0.314588
6.28319,3088.00,145.85,0.0916012,0.0131050,0.0223240,14.3031,0.319301
6.28319,3094.00,147.79,0.0915748,0.0131127,0.0221785,14.3156,0.317498
6.28319,3100.00,147.74,0.0915699,0.0131121,0.0218606,14.3158,0.312953
6.28319,3106.00,148.14,0.0916078,0.0131343,0.0220117,14.3341,0.315517
6.28319,3112.00,148.47,0.0916225,0.0131238,0.0220238,14.3203,0.315389
6.28319,3118.00,148.69,0.0915644,0.0131182,0.0220560,14.3232,0.315914
6.28319,3124.00,148.80,0.0915775,0.0131394,0.0219094,14.3444,0.314276
6.28319,3130.00,148.88,0.0916121,0.0131370,0.0215850,14.3365,0.309453