File: DMA/Sn_Pristine_AllData.xlsx - 100 Hz.csv
Angular frequency,Step time,Temperature,Oscillation strain,Oscillation stress,Tan(delta),Storage modulus,Loss modulus
rad/s,s,Celsius,%,MPa,,MPa,MPa
628.318,846.137,40.06,0.0102356,0.190873,0.0107846,1864.7,20.11
628.318,849.137,40.09,0.0102369,0.190889,0.0108094,1864.6,20.1552
628.318,852.137,40.12,0.0102359,0.190877,0.0108304,1864.67,20.1952
628.318,855.137,40.16,0.0102363,0.190883,0.0108076,1864.65,20.1524
628.318,858.137,40.21,0.0102367,0.190883,0.010752,1864.59,20.048
628.318,861.137,40.26,0.0102363,0.190884,0.0106871,1864.67,19.928
628.318,864.137,40.31,0.0102362,0.190885,0.0106687,1864.69,19.8938
628.318,867.137,40.38,0.0102366,0.190888,0.0106611,1864.65,19.8792
628.318,870.137,40.44,0.0102376,0.190892,0.0106552,1864.51,19.8667
628.318,873.137,40.51,0.0102386,0.190903,0.0106504,1864.44,19.857
628.318,876.137,40.58,0.0102401,0.190914,0.0106488,1864.27,19.8522
628.318,879.137,40.65,0.0102418,0.190926,0.0107022,1864.08,19.9498
628.318,882.137,40.73,0.0102437,0.190944,0.0107676,1863.91,20.0699
628.318,885.137,40.8,0.0102441,0.190945,0.0108281,1863.85,20.1818
628.318,888.137,40.88,0.0102449,0.190958,0.0108737,1863.83,20.2668
628.318,891.137,40.96,0.0102451,0.19096,0.0108132,1863.8,20.1536
628.318,894.137,41.05,0.0102474,0.190981,0.0107186,1863.58,19.975
628.318,897.137,41.13,0.0102495,0.190993,0.0106757,1863.32,19.8923
628.318,900.137,41.22,0.0102526,0.191017,0.0106493,1863,19.8397
628.318,903.137,41.3,0.0102559,0.191043,0.010655,1862.66,19.8467
628.318,906.137,41.39,0.0102587,0.191062,0.0107231,1862.34,19.9701
628.318,909.137,41.48,0.0102613,0.191087,0.0108064,1862.1,20.1226
628.318,912.137,41.58,0.0102633,0.191103,0.0108417,1861.9,20.1862
628.318,915.137,41.67,0.010265,0.191124,0.0108412,1861.79,20.184
628.318,918.137,41.77,0.0102667,0.191135,0.0108032,1861.59,20.1111
628.318,921.137,41.87,0.0102696,0.191161,0.0107713,1861.33,20.049
628.318,924.137,41.97,0.0102716,0.191174,0.01075,1861.08,20.0066
628.318,927.137,42.07,0.0102749,0.191202,0.0107327,1860.77,19.971
628.318,930.137,42.17,0.0102774,0.191221,0.0107142,1860.49,19.9336
628.318,933.137,42.27,0.0102809,0.19125,0.0106668,1860.14,19.8418
628.318,936.137,42.37,0.0102846,0.191272,0.0106685,1859.68,19.84
628.318,939.137,42.48,0.0102886,0.191306,0.0107425,1859.29,19.9735
628.318,942.137,42.58,0.0102907,0.191327,0.0108318,1859.1,20.1375
628.318,945.137,42.68,0.0102922,0.19134,0.0108743,1858.97,20.2149
628.318,948.137,42.77,0.0102939,0.191358,0.010791,1858.84,20.0588
628.318,951.137,42.87,0.0102965,0.191374,0.010681,1858.52,19.8508
628.318,954.137,42.97,0.0103005,0.191404,0.0106881,1858.09,19.8595
628.318,957.137,43.08,0.0103026,0.191418,0.0107757,1857.86,20.0198
628.318,960.137,43.19,0.0103044,0.191439,0.010864,1857.73,20.1823
628.318,963.137,43.3,0.0103047,0.191444,0.0108614,1857.71,20.1774
628.318,966.137,43.43,0.0103068,0.191462,0.0108151,1857.52,20.0892
628.318,969.137,43.55,0.0103084,0.191474,0.0107568,1857.34,19.9791
628.318,972.137,43.68,0.0103104,0.191488,0.0107233,1857.13,19.9146
628.318,975.137,43.8,0.0103122,0.191503,0.010688,1856.95,19.847
628.318,978.137,43.93,0.0103141,0.191518,0.0107101,1856.74,19.8859
628.318,981.137,44.05,0.0103145,0.191525,0.0107974,1856.74,20.048
628.318,984.137,44.18,0.0103162,0.191536,0.0108261,1856.55,20.0992
628.318,987.137,44.31,0.0103189,0.191561,0.0108313,1856.29,20.106
628.318,990.137,44.43,0.0103211,0.191576,0.0108208,1856.04,20.0839
628.318,993.137,44.56,0.0103237,0.191598,0.0108035,1855.8,20.049
628.318,996.137,44.69,0.0103266,0.191621,0.0107584,1855.49,19.9621
628.318,999.137,44.81,0.0103305,0.191652,0.0107449,1855.09,19.9327
628.318,1002.14,44.94,0.0103353,0.191688,0.0107505,1854.59,19.9378
628.318,1005.14,45.07,0.0103404,0.191727,0.0107288,1854.05,19.8918
628.318,1008.14,45.19,0.0103468,0.191777,0.0107642,1853.38,19.9503
628.318,1011.14,45.32,0.010352,0.191818,0.0108526,1852.84,20.1081
628.318,1014.14,45.45,0.0103571,0.19186,0.0109182,1852.33,20.2241
628.318,1017.14,45.57,0.0103621,0.191902,0.0109508,1851.84,20.2791
628.318,1020.14,45.7,0.0103662,0.19194,0.0109734,1851.49,20.3171
628.318,1023.14,45.83,0.0103714,0.19198,0.0108664,1850.95,20.1133
628.318,1026.14,45.96,0.0103783,0.192033,0.0108082,1850.22,19.9976
628.318,1029.14,46.08,0.0103849,0.192085,0.0107867,1849.55,19.9506
628.318,1032.14,46.21,0.0103914,0.192136,0.0108496,1848.88,20.0596
628.318,1035.14,46.34,0.0103968,0.192177,0.0109394,1848.31,20.2194
628.318,1038.14,46.47,0.0104014,0.19222,0.0110071,1847.92,20.3402
628.318,1041.14,46.59,0.0104043,0.192245,0.0110051,1847.63,20.3333
628.318,1044.14,46.72,0.0104082,0.192279,0.0109616,1847.26,20.2489
628.318,1047.14,46.85,0.0104112,0.192301,0.0109312,1846.95,20.1893
628.318,1050.14,46.98,0.0104152,0.192334,0.0109712,1846.56,20.259
628.318,1053.14,47.1,0.0104186,0.192357,0.0110281,1846.18,20.3599
628.318,1056.14,47.24,0.0104223,0.192387,0.0110309,1845.8,20.3608
628.318,1059.14,47.37,0.0104247,0.192401,0.0109864,1845.52,20.2757
628.318,1062.14,47.5,0.0104268,0.19242,0.0109429,1845.32,20.1932
628.318,1065.14,47.64,0.0104278,0.192428,0.0108804,1845.22,20.0767
628.318,1068.14,47.77,0.010429,0.192443,0.010866,1845.16,20.0495
628.318,1071.14,47.92,0.0104298,0.192446,0.0108766,1845.06,20.0679
628.318,1074.14,48.07,0.0104321,0.192471,0.0109247,1844.87,20.1546
628.318,1077.14,48.23,0.0104342,0.192483,0.0109712,1844.62,20.2378
628.318,1080.14,48.39,0.010438,0.192516,0.0110272,1844.26,20.337
628.318,1083.14,48.56,0.010442,0.192544,0.0110958,1843.82,20.4587
628.318,1086.14,48.72,0.0104465,0.192583,0.0111154,1843.41,20.4903
628.318,1089.14,48.88,0.0104508,0.192611,0.0111227,1842.92,20.4982
628.318,1092.14,49.02,0.0104564,0.19266,0.0111319,1842.39,20.5093
628.318,1095.14,49.15,0.0104618,0.192702,0.01113,1841.84,20.4996
628.318,1098.14,49.29,0.0104674,0.192744,0.011105,1841.26,20.4471
628.318,1101.14,49.4,0.0104735,0.192795,0.0110565,1840.68,20.3515
628.318,1104.14,49.54,0.0104782,0.192829,0.0110376,1840.18,20.3113
628.318,1107.14,49.65,0.0104827,0.192866,0.0110223,1839.74,20.2781
628.318,1110.14,49.76,0.0104864,0.192897,0.0110594,1839.38,20.3425
628.318,1113.14,49.86,0.0104889,0.19292,0.0111184,1839.17,20.4486
628.318,1116.14,49.96,0.0104898,0.192932,0.0111403,1839.11,20.4882
628.318,1119.14,50.06,0.0104908,0.19294,0.0111305,1839.02,20.4692
628.318,1122.14,50.17,0.0104911,0.192945,0.0110658,1839.02,20.3503
628.318,1125.14,50.29,0.0104918,0.192946,0.0109844,1838.91,20.1994
628.318,1128.14,50.42,0.0104919,0.192947,0.0109717,1838.9,20.1757
628.318,1131.14,50.56,0.0104916,0.19294,0.0110221,1838.88,20.2683
628.318,1134.14,50.73,0.0104903,0.192932,0.0111235,1839.04,20.4565
628.318,1137.14,50.91,0.010488,0.192916,0.0111683,1839.29,20.5416
628.318,1140.14,51.11,0.0104863,0.192906,0.0112081,1839.48,20.6172
628.318,1143.14,51.31,0.0104842,0.19289,0.0111976,1839.69,20.6001
628.318,1146.14,51.52,0.0104831,0.192884,0.0111579,1839.84,20.5287
628.318,1149.14,51.71,0.0104835,0.192884,0.0110772,1839.76,20.3794
628.318,1152.14,51.88,0.0104858,0.192898,0.0110211,1839.49,20.2732
628.318,1155.14,51.98,0.0104897,0.192927,0.0110182,1839.09,20.2635
628.318,1158.14,52.12,0.0104938,0.192953,0.011091,1838.63,20.3922
628.318,1161.14,52.24,0.010497,0.192985,0.0111902,1838.36,20.5716
628.318,1164.14,52.36,0.0105,0.19301,0.0112396,1838.07,20.6592
628.318,1167.14,52.49,0.0105019,0.19303,0.0111963,1837.93,20.578
628.318,1170.14,52.63,0.010505,0.193053,0.0111343,1837.62,20.4605
628.318,1173.14,52.76,0.0105082,0.193078,0.0110651,1837.29,20.3298
628.318,1176.14,52.9,0.0105115,0.193098,0.0110664,1836.9,20.3278
628.318,1179.14,53.04,0.0105147,0.193124,0.0111698,1836.6,20.5144
628.318,1182.14,53.2,0.0105149,0.193127,0.0112656,1836.58,20.6902
628.318,1185.14,53.36,0.0105143,0.193126,0.011303,1836.66,20.7598
628.318,1188.14,53.53,0.0105133,0.193117,0.0112958,1836.76,20.7478
628.318,1191.14,53.71,0.0105132,0.193119,0.0112404,1836.8,20.6463
628.318,1194.14,53.87,0.0105139,0.193122,0.0111701,1836.72,20.5163
628.318,1197.14,54.05,0.0105155,0.193134,0.0111358,1836.55,20.4515
628.318,1200.14,54.2,0.0105198,0.193163,0.0111413,1836.06,20.456
628.318,1203.14,54.36,0.0105255,0.193202,0.0112523,1835.45,20.653
628.318,1206.14,54.5,0.0105307,0.193247,0.0113537,1834.97,20.8337
628.318,1209.14,54.65,0.0105376,0.193311,0.0113506,1834.38,20.8213
628.318,1212.14,54.78,0.0105453,0.193367,0.0113059,1833.57,20.7301
628.318,1215.14,54.93,0.0105556,0.193452,0.0112402,1832.57,20.5985
628.318,1218.14,55.06,0.0105665,0.193538,0.0111963,1831.5,20.506
628.318,1221.14,55.22,0.0105777,0.193624,0.011182,1830.37,20.4672
628.318,1224.14,55.35,0.0105884,0.193708,0.0112247,1829.32,20.5336
628.318,1227.14,55.51,0.0105974,0.193778,0.0113305,1828.42,20.717
628.318,1230.14,55.66,0.0106047,0.193841,0.0113909,1827.75,20.8196
628.318,1233.14,55.81,0.0106094,0.19388,0.0114064,1827.31,20.8431
628.318,1236.14,55.98,0.0106142,0.193923,0.0113882,1826.89,20.805
628.318,1239.14,56.12,0.0106185,0.193954,0.0113044,1826.45,20.6468
628.318,1242.14,56.29,0.0106247,0.194,0.0112474,1825.83,20.5357
628.318,1245.14,56.44,0.0106321,0.194054,0.011314,1825.06,20.6487
628.318,1248.14,56.6,0.0106391,0.194112,0.011431,1824.4,20.8546
628.318,1251.14,56.74,0.0106458,0.19417,0.0115034,1823.8,20.9799
628.318,1254.14,56.89,0.0106546,0.19424,0.0114523,1822.95,20.8769
628.318,1257.14,57.03,0.0106667,0.194333,0.0113516,1821.76,20.6798
628.318,1260.14,57.18,0.01068,0.194434,0.0113344,1820.43,20.6335
628.318,1263.14,57.33,0.0106927,0.194533,0.0114467,1819.19,20.8237
628.318,1266.14,57.49,0.0107043,0.194634,0.0115214,1818.16,20.9478
628.318,1269.14,57.63,0.0107124,0.1947,0.0115578,1817.39,21.005
628.318,1272.14,57.79,0.0107197,0.194756,0.0114956,1816.69,20.884
628.318,1275.14,57.93,0.0107264,0.194809,0.0114421,1816.04,20.7793
628.318,1278.14,58.08,0.0107322,0.194849,0.0114413,1815.44,20.7709
628.318,1281.14,58.21,0.0107372,0.194888,0.0115221,1814.95,20.912
628.318,1284.14,58.36,0.0107406,0.194916,0.0116103,1814.64,21.0684
628.318,1287.14,58.49,0.010744,0.194945,0.0116577,1814.33,21.1509
628.318,1290.14,58.61,0.0107496,0.194992,0.0116549,1813.82,21.1399
628.318,1293.14,58.75,0.0107561,0.195042,0.0115988,1813.2,21.0309
628.318,1296.14,58.91,0.0107659,0.195113,0.0115194,1812.21,20.8756
628.318,1299.14,59.09,0.0107763,0.195195,0.0115609,1811.22,20.9393
628.318,1302.14,59.23,0.0107855,0.195268,0.0116737,1810.34,21.1333
628.318,1305.14,59.1,0.0107922,0.195328,0.0117271,1809.76,21.2232
628.318,1308.14,59.33,0.0107965,0.195364,0.0116332,1809.39,21.049
628.318,1311.14,59.54,0.0107998,0.195386,0.011581,1809.05,20.9505
628.318,1314.14,59.82,0.0108002,0.195389,0.0116849,1809,21.1381
628.318,1317.14,60.02,0.0107974,0.195372,0.0117623,1809.31,21.2816
628.318,1320.14,59.75,0.0107925,0.195338,0.0116874,1809.82,21.1521
628.318,1323.14,60.14,0.0107898,0.195307,0.0116341,1809.99,21.0576
628.318,1326.14,60.33,0.0107914,0.195317,0.0117122,1809.82,21.197
628.318,1329.14,60.63,0.0107934,0.195334,0.011829,1809.63,21.4062
628.318,1332.14,60.55,0.0107962,0.19536,0.0117648,1809.41,21.2874
628.318,1335.14,60.56,0.0108033,0.195407,0.0116994,1808.65,21.1601
628.318,1338.14,61.02,0.0108082,0.195447,0.0118295,1808.19,21.39
628.318,1341.14,61.24,0.01081,0.195465,0.0119221,1808.06,21.5559
628.318,1344.14,61.31,0.0108102,0.195473,0.011896,1808.09,21.5091
628.318,1347.14,61.03,0.0108087,0.195457,0.011831,1808.21,21.3929
628.318,1350.14,61.63,0.0108099,0.195465,0.0118082,1808.08,21.3502
628.318,1353.14,61.81,0.0108141,0.195487,0.0118565,1807.58,21.4315
628.318,1356.14,62.12,0.0108224,0.195556,0.0120052,1806.82,21.6912
628.318,1359.14,61.66,0.0108352,0.195656,0.0120382,1805.61,21.7363
628.318,1362.14,62.13,0.0108511,0.195786,0.0119962,1804.16,21.643
628.318,1365.14,62.49,0.010867,0.19591,0.0119119,1802.66,21.4731
628.318,1368.14,62.76,0.0108826,0.196024,0.0119641,1801.13,21.5489
628.318,1371.14,62.52,0.0108947,0.196123,0.0120481,1800.03,21.687
628.318,1374.14,62.37,0.0109037,0.196198,0.0121172,1799.24,21.8018
628.318,1377.14,62.99,0.0109102,0.196254,0.0120945,1798.68,21.7541
628.318,1380.14,63.29,0.0109194,0.196321,0.012054,1797.78,21.6704
628.318,1383.14,63.57,0.0109318,0.196416,0.0120163,1796.62,21.5888
628.318,1386.14,62.94,0.010951,0.196557,0.0120382,1794.75,21.6057
628.318,1389.14,63.39,0.010972,0.196724,0.0121346,1792.82,21.7551
628.318,1392.14,63.7,0.0109873,0.196844,0.0122292,1791.42,21.9077
628.318,1395.14,64.22,0.0109985,0.196934,0.0123104,1790.41,22.0408
628.318,1398.14,63.87,0.0110077,0.197007,0.0123309,1789.59,22.0672
628.318,1401.14,63.78,0.0110137,0.197058,0.0123502,1789.07,22.0954
628.318,1404.14,64.55,0.0110182,0.197091,0.0123998,1788.64,22.1788
628.318,1407.14,64.8,0.0110261,0.197158,0.0123413,1787.97,22.0658
628.318,1410.14,64.11,0.0110384,0.197244,0.0123066,1786.76,21.989
628.318,1413.14,64.77,0.0110535,0.197365,0.01229,1785.4,21.9426
628.318,1416.14,65.23,0.0110641,0.197447,0.0123222,1784.44,21.9883
628.318,1419.14,65.63,0.0110706,0.197496,0.0123944,1783.83,22.1095
628.318,1422.14,65.47,0.0110715,0.197507,0.0124655,1783.79,22.2357
628.318,1425.14,65.54,0.0110655,0.197466,0.0125313,1784.37,22.3605
628.318,1428.14,66.12,0.01106,0.197426,0.0125451,1784.91,22.3918
628.318,1431.14,65.75,0.0110593,0.197417,0.0124895,1784.94,22.293
628.318,1434.14,65.57,0.0110625,0.197436,0.0124574,1784.6,22.2315
628.318,1437.14,66.45,0.0110681,0.197479,0.0124894,1784.08,22.282
628.318,1440.14,66,0.0110742,0.197522,0.01252,1783.48,22.3291
628.318,1443.14,65.65,0.0110765,0.197543,0.0125701,1783.29,22.4163
628.318,1446.14,66.41,0.0110766,0.197541,0.0127055,1783.26,22.6572
628.318,1449.14,67,0.0110782,0.197553,0.0127928,1783.12,22.8111
628.318,1452.14,67.3,0.0110826,0.197588,0.0128148,1782.73,22.8454
628.318,1455.14,66.82,0.0110927,0.197662,0.0128297,1781.77,22.8595
628.318,1458.14,67.52,0.0111078,0.197782,0.01285,1780.43,22.8786
628.318,1461.14,67.84,0.0111251,0.197915,0.0128813,1778.85,22.9139
628.318,1464.14,67.92,0.0111455,0.198066,0.0128876,1776.95,22.9006
628.318,1467.14,67.54,0.0111619,0.1982,0.0128652,1775.54,22.8427
628.318,1470.14,67.73,0.0111716,0.198271,0.0128799,1774.63,22.8571
628.318,1473.14,68.28,0.0111828,0.19836,0.0128603,1773.65,22.8097
628.318,1476.14,67.44,0.0111984,0.198477,0.0128327,1772.23,22.7425
628.318,1479.14,67.87,0.0112192,0.198638,0.0128794,1770.38,22.8015
628.318,1482.14,68.47,0.0112359,0.198768,0.0129483,1768.89,22.9041
628.318,1485.14,68.94,0.0112502,0.198875,0.0130262,1767.6,23.0251
628.318,1488.14,68.36,0.0112621,0.198967,0.0130737,1766.55,23.0954
628.318,1491.14,69,0.0112701,0.199036,0.0131793,1765.9,23.2734
628.318,1494.14,69.38,0.0112752,0.199073,0.0132364,1765.43,23.3679
628.318,1497.14,69.62,0.0112848,0.199145,0.013252,1764.57,23.3841
628.318,1500.14,69.39,0.0113028,0.19928,0.0132471,1762.95,23.354
628.318,1503.14,69.2,0.0113165,0.199388,0.0132752,1761.76,23.3879
628.318,1506.14,69.76,0.0113223,0.199435,0.0132927,1761.28,23.4122
628.318,1509.14,69.31,0.0113231,0.199442,0.0132882,1761.22,23.4035
628.318,1512.14,69.17,0.0113179,0.199407,0.0133153,1761.72,23.4578
628.318,1515.14,69.96,0.0113151,0.19938,0.0133174,1761.91,23.464
628.318,1518.14,70.47,0.0113162,0.199393,0.0132892,1761.86,23.4136
628.318,1521.14,69.88,0.0113199,0.199421,0.0133148,1761.53,23.4543
628.318,1524.14,70.55,0.0113233,0.199448,0.0133766,1761.23,23.5593
628.318,1527.14,70.92,0.0113267,0.199474,0.013424,1760.93,23.6387
628.318,1530.14,71.08,0.0113293,0.199494,0.0134377,1760.71,23.6598
628.318,1533.14,70.37,0.0113301,0.199498,0.0134655,1760.61,23.7076
628.318,1536.14,71.26,0.0113359,0.199539,0.0135457,1760.08,23.8414
628.318,1539.14,71.51,0.0113483,0.199627,0.0136727,1758.93,24.0494
628.318,1542.14,71.11,0.011369,0.199788,0.0136926,1757.13,24.0598
628.318,1545.14,71.79,0.0113909,0.199954,0.0137495,1755.21,24.1332
628.318,1548.14,71.88,0.0114082,0.200083,0.013752,1753.68,24.1166
628.318,1551.14,71.99,0.0114248,0.200214,0.0137134,1752.29,24.0298
628.318,1554.14,71.5,0.0114381,0.200309,0.0136794,1751.08,23.9537
628.318,1557.14,72.12,0.0114555,0.200447,0.013737,1749.62,24.0345
628.318,1560.14,72.56,0.011472,0.200572,0.0137906,1748.2,24.1086
628.318,1563.14,71.6,0.0114922,0.200729,0.0138072,1746.49,24.1141
628.318,1566.14,72.32,0.0115083,0.200855,0.013889,1745.15,24.2383
628.318,1569.14,72.93,0.0115186,0.20093,0.0139245,1744.23,24.2876
628.318,1572.14,73.35,0.0115273,0.200994,0.0139387,1743.47,24.3018
628.318,1575.14,73.18,0.0115422,0.201105,0.0139485,1742.17,24.3006
628.318,1578.14,72.95,0.0115576,0.201224,0.0140434,1740.88,24.4479
628.318,1581.14,73.17,0.0115694,0.201318,0.0141244,1739.92,24.5754
628.318,1584.14,73.55,0.0115746,0.201361,0.0142218,1739.5,24.7387
628.318,1587.14,72.92,0.011576,0.201371,0.0142453,1739.38,24.778
628.318,1590.14,73.68,0.0115732,0.201345,0.0143069,1739.58,24.888
628.318,1593.14,73.41,0.011574,0.201348,0.0143024,1739.48,24.8788
628.318,1596.14,73.93,0.0115778,0.201379,0.0143618,1739.17,24.9776
628.318,1599.14,73.77,0.0115829,0.201414,0.0144138,1738.72,25.0616
628.318,1602.14,74.16,0.0115851,0.201435,0.0145277,1738.55,25.2571
628.318,1605.14,74.06,0.0115899,0.201466,0.0145501,1738.11,25.2896
628.318,1608.14,74.38,0.0116011,0.201548,0.014617,1737.13,25.3916
628.318,1611.14,74.38,0.0116214,0.201696,0.0146426,1735.38,25.4105
628.318,1614.14,74.67,0.0116465,0.201891,0.0146977,1733.3,25.4755
628.318,1617.14,74.74,0.0116687,0.202061,0.0147296,1731.45,25.5037
628.318,1620.14,74.85,0.0116897,0.20222,0.0147493,1729.71,25.512
628.318,1623.14,75.01,0.0117114,0.202378,0.0148066,1727.85,25.5836
628.318,1626.14,75.17,0.0117405,0.2026,0.0148797,1725.45,25.6742
628.318,1629.14,75.36,0.0117641,0.202778,0.0149568,1723.51,25.7783
628.318,1632.14,75.44,0.0117838,0.202928,0.014987,1721.91,25.8061
628.318,1635.14,75.74,0.0117992,0.203037,0.015011,1720.58,25.8276
628.318,1638.14,75.7,0.0118218,0.203206,0.0150472,1718.72,25.8619
628.318,1641.14,76.14,0.0118371,0.203328,0.0151467,1717.52,26.0148
628.318,1644.14,75.91,0.0118445,0.203389,0.0152644,1716.95,26.2083
628.318,1647.14,76.49,0.0118435,0.203377,0.0154082,1717.01,26.456
628.318,1650.14,76.27,0.0118483,0.203408,0.0154725,1716.56,26.5595
628.318,1653.14,76.8,0.0118519,0.203435,0.015618,1716.28,26.8049
628.318,1656.14,76.61,0.0118608,0.203498,0.0156724,1715.51,26.8862
628.318,1659.14,77.1,0.0118738,0.203593,0.0157747,1714.42,27.0446
628.318,1662.14,77,0.0118988,0.203772,0.0158382,1712.32,27.12
628.318,1665.14,77.34,0.0119304,0.204013,0.0158856,1709.81,27.1613
628.318,1668.14,77.41,0.011959,0.204223,0.0159008,1707.47,27.1501
628.318,1671.14,77.6,0.0119905,0.204457,0.0159615,1704.94,27.2134
628.318,1674.14,77.79,0.0120211,0.204677,0.016048,1702.42,27.3205
628.318,1677.14,77.84,0.0120522,0.204907,0.0162169,1699.94,27.5678
628.318,1680.14,78.2,0.012077,0.205088,0.0163681,1697.95,27.7921
628.318,1683.14,78.11,0.0121027,0.205283,0.0165196,1695.94,28.0163
628.318,1686.14,78.59,0.0121239,0.205442,0.0166666,1694.29,28.238
628.318,1689.14,78.38,0.0121378,0.205547,0.0167021,1693.2,28.28
628.318,1692.14,78.97,0.0121428,0.205582,0.0168014,1692.8,28.4413
628.318,1695.14,78.68,0.0121468,0.205608,0.0168532,1692.45,28.5233
628.318,1698.14,79.3,0.0121535,0.205656,0.0170582,1691.91,28.8609
628.318,1701.14,78.99,0.0121688,0.205764,0.0171617,1690.66,29.0146
628.318,1704.14,79.6,0.012193,0.205935,0.0173729,1688.7,29.3376
628.318,1707.14,79.36,0.0122258,0.206174,0.0174852,1686.13,29.4823
628.318,1710.14,79.87,0.0122608,0.206437,0.017667,1683.45,29.7416
628.318,1713.14,79.73,0.0122977,0.206703,0.0177843,1680.55,29.8875
628.318,1716.14,80.13,0.0123323,0.20696,0.0179574,1677.93,30.1313
628.318,1719.14,80.12,0.012364,0.207191,0.0181059,1675.49,30.3363
628.318,1722.14,80.37,0.0123966,0.207431,0.0182444,1673.01,30.5231
628.318,1725.14,80.51,0.0124262,0.207643,0.0183496,1670.73,30.6572
628.318,1728.14,80.61,0.0124491,0.207812,0.0185001,1669.01,30.8767
628.318,1731.14,80.92,0.0124668,0.207943,0.0186607,1667.68,31.1202
628.318,1734.14,80.85,0.0124763,0.208016,0.0188318,1667,31.3926
628.318,1737.14,81.29,0.0124821,0.208055,0.0190593,1666.53,31.7627
628.318,1740.14,81.1,0.0125,0.208174,0.0193218,1665.09,32.1724
628.318,1743.14,81.65,0.0125309,0.208388,0.0195478,1662.68,32.5018
628.318,1746.14,81.37,0.0125671,0.208646,0.0196999,1659.93,32.7005
628.318,1749.14,81.99,0.0126084,0.208939,0.0198874,1656.82,32.9499
628.318,1752.14,81.67,0.0126549,0.209275,0.0199979,1653.38,33.064
628.318,1755.14,82.33,0.0126936,0.209558,0.0202215,1650.55,33.3767
628.318,1758.14,81.98,0.0127306,0.20982,0.0204363,1647.82,33.6754
628.318,1761.14,82.64,0.0127733,0.210128,0.0206863,1644.7,34.0228
628.318,1764.14,82.3,0.0128044,0.210352,0.0209876,1642.45,34.471
628.318,1767.14,82.94,0.0128299,0.210537,0.0212319,1640.62,34.8334
628.318,1770.14,82.66,0.0128534,0.210703,0.0215399,1638.89,35.3016
628.318,1773.14,83.22,0.0128617,0.210764,0.0218171,1638.3,35.7431
628.318,1776.14,83.01,0.0128845,0.210909,0.0220962,1636.52,36.161
628.318,1779.14,83.48,0.0129257,0.211196,0.0223832,1633.52,36.5633
628.318,1782.14,83.39,0.0129661,0.211482,0.0225789,1630.62,36.8175
628.318,1785.14,83.74,0.0130179,0.211841,0.0228776,1626.88,37.219
628.318,1788.14,83.76,0.0130749,0.212246,0.0231694,1622.88,37.6011
628.318,1791.14,84,0.013117,0.212543,0.0235793,1619.91,38.1964
628.318,1794.14,84.15,0.0131693,0.212906,0.0239343,1616.22,38.6832
628.318,1797.14,84.27,0.0132166,0.213241,0.0242651,1612.95,39.1385
628.318,1800.14,84.5,0.0132494,0.213469,0.0245593,1610.68,39.5571
628.318,1803.14,84.52,0.0132836,0.213708,0.0248348,1608.31,39.9421
628.318,1806.14,84.85,0.0132986,0.21382,0.0252438,1607.33,40.575
628.318,1809.14,84.8,0.0133273,0.214,0.0256925,1605.19,41.2414
628.318,1812.14,85.19,0.0133825,0.214386,0.0261036,1601.45,41.8035
628.318,1815.14,85.09,0.0134322,0.214725,0.0266204,1598.02,42.5398
628.318,1818.14,85.51,0.0135031,0.21521,0.0270168,1593.2,43.0432
628.318,1821.14,85.39,0.0135652,0.215647,0.0274603,1589.11,43.6375
628.318,1824.14,85.83,0.01362,0.216008,0.0279425,1585.34,44.2984
628.318,1827.14,85.7,0.013686,0.216465,0.0283066,1581.02,44.7532
628.318,1830.14,86.14,0.0137277,0.216751,0.028808,1578.28,45.467
628.318,1833.14,86.01,0.013774,0.217066,0.0293279,1575.24,46.1983
628.318,1836.14,86.44,0.0138012,0.217257,0.0298668,1573.48,46.9948
628.318,1839.14,86.33,0.0138464,0.217547,0.0305496,1570.41,47.9754
628.318,1842.14,86.73,0.0139113,0.217984,0.0310803,1566.2,48.6779
628.318,1845.14,86.64,0.0139773,0.218425,0.0316293,1561.93,49.4029
628.318,1848.14,87.01,0.0140625,0.218994,0.0322005,1556.49,50.1197
628.318,1851.14,86.98,0.0141254,0.219418,0.032753,1552.52,50.8498
628.318,1854.14,87.28,0.0142041,0.219938,0.0333947,1547.55,51.6799
628.318,1857.14,87.32,0.0142644,0.22035,0.0340678,1543.86,52.5959
628.318,1860.14,87.55,0.0143246,0.220745,0.0347591,1540.09,53.5323
628.318,1863.14,87.66,0.0143717,0.221066,0.035525,1537.23,54.6102
628.318,1866.14,87.81,0.0144232,0.221387,0.0362536,1533.93,55.6105
628.318,1869.14,88.02,0.0145049,0.221924,0.0369973,1528.95,56.5669
628.318,1872.14,88.07,0.014581,0.222414,0.0376807,1524.29,57.4362
628.318,1875.14,88.38,0.0146784,0.223055,0.0384551,1518.49,58.3937
628.318,1878.14,88.36,0.0147504,0.223525,0.0391932,1514.22,59.3472
628.318,1881.14,88.74,0.0148439,0.224131,0.040004,1508.71,60.3545
628.318,1884.14,88.7,0.0149088,0.224555,0.0408702,1504.94,61.507
628.318,1887.14,88.99,0.014983,0.225036,0.0417565,1500.64,62.6614
628.318,1890.14,88.96,0.0150412,0.225406,0.0427204,1497.23,63.9624
628.318,1893.14,89.3,0.0151293,0.22596,0.0436439,1492.1,65.1212
628.318,1896.14,89.17,0.0152188,0.226528,0.0444982,1487.01,66.169
628.318,1899.14,90.23,0.0153224,0.227184,0.0454427,1481.17,67.3082
628.318,1902.14,89.91,0.015411,0.22775,0.046301,1476.26,68.3524
628.318,1905.14,90.88,0.0155166,0.228414,0.0473359,1470.42,69.6035
628.318,1908.14,91.25,0.0156037,0.228969,0.048376,1465.69,70.9043
628.318,1911.14,91.56,0.0156926,0.229524,0.0494978,1460.83,72.3081
628.318,1914.14,91.85,0.0157574,0.229933,0.0505862,1457.34,73.7213
628.318,1917.14,92.19,0.0158193,0.230318,0.0512187,1454.03,74.4734
628.318,1920.14,91.6,0.0158715,0.230642,0.0516173,1451.25,74.9097
628.318,1923.14,91.56,0.015953,0.231138,0.0522893,1446.89,75.6569
628.318,1926.14,92.31,0.0160495,0.231731,0.0532856,1441.8,76.8273
628.318,1929.14,91.96,0.0161385,0.232283,0.0541792,1437.2,77.8665
628.318,1932.14,91.4,0.0162189,0.232777,0.0551765,1433.04,79.0704
628.318,1935.14,91.55,0.0163176,0.233379,0.056349,1427.96,80.4642
628.318,1938.14,91.89,0.0164173,0.233976,0.0576447,1422.81,82.0177
628.318,1941.14,91.66,0.0165382,0.234701,0.0590275,1416.68,83.6229
628.318,1944.14,91.93,0.0166689,0.235487,0.060359,1410.16,85.116
628.318,1947.14,91.65,0.0168016,0.236278,0.061743,1403.62,86.6635
628.318,1950.14,92.05,0.0169397,0.237114,0.0632696,1396.96,88.385
628.318,1953.14,91.75,0.0170742,0.23791,0.0648856,1390.47,90.2216
628.318,1956.14,92.17,0.0172035,0.238671,0.066461,1384.28,92.0007
628.318,1959.14,91.91,0.0173454,0.239506,0.0680239,1377.62,93.7112
628.318,1962.14,92.33,0.0174845,0.24031,0.0696746,1371.09,95.5303
628.318,1965.14,92.11,0.017637,0.2412,0.0712797,1364.12,97.2341
628.318,1968.14,92.53,0.0177988,0.242135,0.0730403,1356.79,99.1003
628.318,1971.14,92.35,0.0179522,0.243022,0.0749082,1349.94,101.121
628.318,1974.14,92.77,0.018116,0.243961,0.0767116,1342.71,103.002
628.318,1977.14,92.61,0.0182752,0.24486,0.0786049,1335.73,104.995
628.318,1980.14,93.01,0.0184455,0.245831,0.0805181,1328.44,106.964
628.318,1983.14,92.87,0.0186204,0.246804,0.0824205,1320.97,108.875
628.318,1986.14,93.24,0.018796,0.247785,0.0844735,1313.61,110.965
628.318,1989.14,93.18,0.0189891,0.248857,0.0864456,1305.66,112.869
628.318,1992.14,93.49,0.0191692,0.249852,0.0885583,1298.32,114.977
628.318,1995.14,93.49,0.0193592,0.250893,0.0906523,1290.7,117.005
628.318,1998.14,93.74,0.0195614,0.251995,0.0927855,1282.71,119.017
628.318,2001.14,93.81,0.0197577,0.25306,0.0949981,1275.07,121.13
628.318,2004.14,94.01,0.0199575,0.254143,0.0972344,1267.44,123.239
628.318,2007.14,94.15,0.0201642,0.255237,0.0995928,1259.57,125.444
628.318,2010.14,94.31,0.0203834,0.256409,0.10198,1251.44,127.621
628.318,2013.14,94.44,0.0206042,0.257573,0.104453,1243.33,129.87
628.318,2016.14,94.67,0.0208457,0.258834,0.106987,1234.62,132.088
628.318,2019.14,94.76,0.0210978,0.260146,0.109478,1225.73,134.19
628.318,2022.14,95.02,0.0213478,0.261439,0.112082,1217.05,136.409
628.318,2025.14,95.04,0.0215973,0.26271,0.114799,1208.47,138.73
628.318,2028.14,95.15,0.0218642,0.264062,0.117696,1199.45,141.171
628.318,2031.14,95.37,0.0221569,0.265542,0.120817,1189.81,143.749
628.318,2034.14,95.48,0.0224419,0.266962,0.123856,1180.55,146.218
628.318,2037.14,95.64,0.0227461,0.268485,0.126831,1170.97,148.515
628.318,2040.14,95.8,0.0230526,0.269994,0.129844,1161.46,150.808
628.318,2043.14,95.92,0.0233498,0.271445,0.133032,1152.36,153.301
628.318,2046.14,96.14,0.0236544,0.272916,0.136178,1143.21,155.68
628.318,2049.14,96.24,0.0239745,0.274443,0.139409,1133.76,158.057
628.318,2052.14,96.48,0.0243112,0.276037,0.142727,1124.04,160.431
628.318,2055.14,96.59,0.0246836,0.277794,0.146209,1113.58,162.816
628.318,2058.14,96.85,0.0250709,0.27961,0.14987,1102.96,165.301
628.318,2061.14,96.99,0.0254557,0.281393,0.153606,1092.61,167.831
628.318,2064.14,97.2,0.0258396,0.28314,0.157412,1082.43,170.388
628.318,2067.14,97.36,0.0262404,0.284953,0.16131,1072.07,172.937
628.318,2070.14,97.51,0.0266807,0.286926,0.1653,1061.01,175.385
628.318,2073.14,97.71,0.027147,0.288996,0.169459,1049.6,177.864
628.318,2076.14,97.84,0.0276212,0.29109,0.17363,1038.33,180.285
628.318,2079.14,98.01,0.0280946,0.293142,0.177866,1027.29,182.72
628.318,2082.14,98.19,0.028566,0.29516,0.182232,1016.52,185.241
628.318,2085.14,98.32,0.0290699,0.297291,0.186681,1005.31,187.673
628.318,2088.14,98.53,0.029624,0.299625,0.191258,993.419,190
628.318,2091.14,98.65,0.0301897,0.301975,0.195945,981.593,192.338
628.318,2094.14,98.82,0.0307668,0.304346,0.200729,969.858,194.679
628.318,2097.14,99,0.0313477,0.306695,0.205625,958.315,197.054
628.318,2100.14,99.11,0.0319577,0.309124,0.210597,946.53,199.336
628.318,2103.14,99.33,0.0326085,0.311692,0.215708,934.37,201.551
628.318,2106.19,99.44,0.0332887,0.314332,0.221003,922.013,203.768
628.318,2109.33,99.62,0.0340095,0.317112,0.226609,909.366,206.071
628.318,2112.33,99.8,0.0347243,0.319818,0.232075,897.175,208.212
628.318,2115.33,99.9,0.0354737,0.322613,0.237624,884.806,210.251
628.318,2118.33,100.13,0.0362634,0.325527,0.243346,872.22,212.251
628.318,2121.33,100.21,0.0370729,0.328475,0.249174,859.735,214.223
628.318,2124.33,100.41,0.0379345,0.331554,0.255139,846.887,216.074
628.318,2127.33,100.56,0.0388297,0.334723,0.261181,834.05,217.838
628.318,2130.33,100.68,0.0397465,0.337897,0.267368,821.282,219.584
628.318,2133.33,100.91,0.040717,0.341217,0.273677,808.296,221.212
628.318,2136.33,100.97,0.0417419,0.344657,0.280093,795.088,222.698
628.318,2139.33,101.19,0.0428227,0.348245,0.286745,781.724,224.155
628.318,2142.33,101.33,0.0439116,0.351791,0.293488,768.713,225.608
628.318,2145.33,101.45,0.0450668,0.355482,0.300429,755.435,226.954
628.318,2148.33,101.69,0.0463067,0.359386,0.307419,741.837,228.055
628.318,2151.33,101.73,0.0475813,0.363324,0.314535,728.405,229.109
628.318,2154.33,101.98,0.0489115,0.36735,0.321944,714.915,230.162
628.318,2157.33,102.07,0.050312,0.37152,0.329337,701.374,230.989
628.318,2160.33,102.22,0.0518,0.375862,0.33707,687.593,231.767
628.318,2163.33,102.44,0.0533474,0.380301,0.344909,673.917,232.44
628.318,2166.33,102.47,0.0549784,0.384872,0.352964,660.128,233.001
628.318,2169.33,102.76,0.0567062,0.38962,0.361188,646.226,233.409
628.318,2172.33,102.77,0.0584855,0.394407,0.369396,632.588,233.675
628.318,2175.33,103.04,0.0604222,0.399498,0.37805,618.457,233.808
628.318,2178.33,103.15,0.0624463,0.404721,0.386869,604.454,233.845
628.318,2181.33,103.25,0.0646,0.410124,0.396118,590.245,233.807
628.318,2184.33,103.51,0.0668816,0.415757,0.405222,576.126,233.459
628.318,2187.33,103.52,0.0692562,0.421433,0.414593,562.118,233.05
628.318,2190.33,103.83,0.0718253,0.427447,0.424408,547.824,232.501
628.318,2193.33,103.81,0.0745693,0.433688,0.434653,533.384,231.837
628.318,2196.33,104.1,0.0775338,0.44028,0.445297,518.749,230.997
628.318,2199.33,104.13,0.0805744,0.446856,0.455563,504.685,229.916
628.318,2202.33,104.41,0.0839075,0.45384,0.466608,490.149,228.707
628.318,2205.33,104.49,0.0874555,0.461005,0.477995,475.593,227.331
628.318,2208.33,104.6,0.0889775,0.456903,0.489739,461.169,225.852
628.318,2211.33,104.87,0.0889652,0.445559,0.500608,447.841,224.193
628.318,2214.33,104.9,0.0889701,0.434645,0.511553,434.926,222.488
628.318,2217.33,105.2,0.088967,0.423831,0.522578,422.216,220.641
628.318,2220.33,105.18,0.088971,0.413208,0.533786,409.714,218.7
628.318,2223.33,105.44,0.0889682,0.402614,0.545238,397.316,216.632
628.318,2226.33,105.52,0.0889588,0.39281,0.555743,385.966,214.498
628.318,2229.33,105.7,0.0889625,0.383191,0.566646,374.751,212.351
628.318,2232.33,105.86,0.0889618,0.373728,0.577527,363.789,210.098
628.318,2235.33,106,0.088963,0.364326,0.588671,352.917,207.752
628.318,2238.33,106.24,0.0889588,0.355189,0.599653,342.427,205.337
628.318,2241.33,106.3,0.0889606,0.346328,0.610622,332.259,202.885
628.318,2244.33,106.5,0.0889588,0.337504,0.621749,322.195,200.324
628.318,2247.33,106.67,0.0889525,0.329221,0.632154,312.841,197.764
628.318,2250.33,106.77,0.0889554,0.321045,0.64316,303.545,195.228
628.318,2253.33,106.99,0.0889541,0.313011,0.654151,294.471,192.628
628.318,2256.33,107.04,0.0889561,0.305043,0.665268,285.506,189.938
628.318,2259.33,107.3,0.0889504,0.297244,0.676194,276.822,187.185
628.318,2262.33,107.34,0.0889477,0.290013,0.686438,268.811,184.522
628.318,2265.33,107.6,0.0889489,0.282746,0.697418,260.729,181.837
628.318,2268.33,107.67,0.0889507,0.27562,0.708409,252.842,179.115
628.318,2271.33,107.81,0.088952,0.268418,0.7198,244.909,176.286
628.318,2274.33,108.02,0.0889405,0.261604,0.730401,237.522,173.486
628.318,2277.33,108.06,0.0889427,0.255247,0.74052,230.628,170.785
628.318,2280.33,108.33,0.0889424,0.24885,0.751143,223.707,168.036
628.318,2283.33,108.41,0.0889437,0.242524,0.762007,216.881,165.265
628.318,2286.33,108.61,0.088943,0.236245,0.772993,210.15,162.444
628.318,2289.33,108.81,0.0889376,0.230309,0.783385,203.852,159.695
628.318,2292.33,108.84,0.0889414,0.224435,0.794176,197.605,156.933
628.318,2295.33,109.11,0.0889361,0.21861,0.804979,191.476,154.134
628.318,2298.33,109.19,0.0889334,0.213243,0.814722,185.893,151.451
628.318,2301.33,109.34,0.0889363,0.207783,0.825253,180.194,148.706
628.318,2304.33,109.58,0.0889331,0.202458,0.835628,174.69,145.976
628.318,2307.33,109.62,0.0889355,0.197224,0.846108,169.293,143.24
628.318,2310.33,109.83,0.0889326,0.192022,0.856716,163.972,140.477
628.318,2313.33,109.97,0.0889248,0.187276,0.866092,159.193,137.876
628.318,2316.33,110.12,0.0889282,0.182565,0.876015,154.423,135.276
628.318,2319.33,110.28,0.0889282,0.177887,0.885997,149.722,132.653
628.318,2322.33,110.37,0.0889313,0.17316,0.896187,145.003,129.95
628.318,2325.33,110.55,0.0889256,0.168528,0.906014,140.445,127.245
628.318,2328.33,110.67,0.0889171,0.164386,0.914378,136.437,124.755
628.318,2331.33,110.83,0.0889206,0.160275,0.923458,132.42,122.284
628.318,2334.33,111,0.08892,0.156219,0.932553,128.485,119.819
628.318,2337.33,111.14,0.0889208,0.152184,0.94174,124.593,117.334
628.318,2340.33,111.33,0.0889193,0.148203,0.950673,120.796,114.838
628.318,2343.33,111.51,0.0889157,0.144412,0.958747,117.237,112.4
628.318,2346.33,111.6,0.0889164,0.14071,0.966517,113.788,109.978
628.318,2349.33,111.78,0.088916,0.137003,0.97427,110.363,107.523
628.318,2352.33,111.98,0.0889095,0.133528,0.981466,107.185,105.198
628.318,2355.33,112.04,0.0889125,0.13014,0.988608,104.09,102.904
628.318,2358.33,112.23,0.0889117,0.126722,0.995859,100.99,100.572
628.318,2361.33,112.44,0.088906,0.123531,1.00198,98.1518,98.3462
628.318,2364.33,112.48,0.0889089,0.120396,1.00773,95.3836,96.1209
628.318,2367.33,112.7,0.0889074,0.117229,1.01334,92.6159,93.8518
628.318,2370.33,112.88,0.0889022,0.114288,1.01809,90.0832,91.7129
628.318,2373.33,112.93,0.0889047,0.111362,1.02304,87.5578,89.5752
628.318,2376.33,113.16,0.0889032,0.108443,1.02781,85.0612,87.4271
628.318,2379.33,113.32,0.0888989,0.105741,1.03152,82.7919,85.4018
628.318,2382.33,113.38,0.0889018,0.103028,1.03488,80.5297,83.3389
628.318,2385.33,113.62,0.0888982,0.100333,1.03777,78.3134,81.2716
628.318,2388.33,113.75,0.0888954,0.0978479,1.03982,76.2979,79.3361
628.318,2391.33,113.84,0.0888977,0.0953238,1.04207,74.2442,77.3677
628.318,2394.33,114.07,0.0888949,0.092831,1.04408,72.2326,75.4163
628.318,2397.33,114.21,0.0888924,0.0905144,1.04527,70.3899,73.5767
628.318,2400.33,114.29,0.0888944,0.0881873,1.046,68.5537,71.7072
628.318,2403.33,114.52,0.0888902,0.0858992,1.04603,66.7774,69.8509
628.318,2406.33,114.65,0.0888882,0.0837797,1.04546,65.1495,68.1113
628.318,2409.33,114.75,0.0888902,0.0816316,1.0451,63.489,66.3525
628.318,2412.33,114.95,0.0888878,0.0795096,1.04462,61.8552,64.6152
628.318,2415.33,115.11,0.0888844,0.0775415,1.04321,60.3691,62.9773
628.318,2418.33,115.2,0.0888859,0.0755977,1.04094,58.9215,61.3337
628.318,2421.33,115.38,0.0888849,0.0736349,1.03835,57.4667,59.6703
628.318,2424.33,115.57,0.0888805,0.071795,1.03586,56.1033,58.115
628.318,2427.33,115.66,0.088881,0.0700351,1.03346,54.7933,56.6265
628.318,2430.33,115.8,0.0888812,0.0682642,1.03024,53.4935,55.1114
628.318,2433.33,116.01,0.0888776,0.0665505,1.02595,52.2649,53.621
628.318,2436.33,116.13,0.0888762,0.0649418,1.02179,51.1083,52.2221
628.318,2439.33,116.25,0.0888774,0.0633344,1.01774,49.9437,50.8299
628.318,2442.33,116.43,0.0888756,0.0617511,1.013,48.8117,49.4463
628.318,2445.33,116.6,0.088872,0.0602763,1.0076,47.7768,48.1398
628.318,2448.33,116.72,0.088872,0.0588421,1.00197,46.7713,46.8636
628.318,2451.33,116.84,0.0888729,0.0573891,0.996597,45.7387,45.5831
628.318,2454.33,117.03,0.0888702,0.0559832,0.990842,44.7481,44.3384
628.318,2457.33,117.18,0.0888669,0.0547063,0.984501,43.868,43.1881
628.318,2460.33,117.31,0.0888679,0.0534379,0.977386,43.0031,42.0306
628.318,2463.33,117.43,0.0888682,0.0521501,0.970703,42.1071,40.8734
628.318,2466.33,117.63,0.0888655,0.050911,0.963667,41.2526,39.7538
628.318,2469.33,117.77,0.0888625,0.0497838,0.956709,40.481,38.7285
628.318,2472.33,117.91,0.0888635,0.0486787,0.949164,39.7315,37.7117
628.318,2475.33,118.03,0.0888639,0.0475502,0.940939,38.9699,36.6683
628.318,2478.33,118.22,0.0888616,0.0464421,0.932751,38.2185,35.6484
628.318,2481.33,118.37,0.088858,0.0454374,0.925094,37.5363,34.7246
628.318,2484.33,118.5,0.0888591,0.0444777,0.917235,36.8872,33.8342
628.318,2487.33,118.62,0.088859,0.0435087,0.908273,36.245,32.9204
628.318,2490.33,118.81,0.0888582,0.0425456,0.898967,35.6074,32.0099
628.318,2493.33,118.96,0.0888551,0.0416445,0.889915,35.0116,31.1574
628.318,2496.33,119.1,0.0888546,0.040793,0.881617,34.4375,30.3607
628.318,2499.33,119.23,0.088855,0.03994,0.872782,33.8652,29.557
628.318,2502.33,119.39,0.0888545,0.0390988,0.863651,33.3024,28.7616
628.318,2505.33,119.55,0.0888524,0.0383086,0.854084,32.7848,28.0009
628.318,2508.33,119.71,0.0888506,0.0375821,0.844885,32.3099,27.2982
628.318,2511.33,119.84,0.0888515,0.0368501,0.835047,31.8342,26.5831
628.318,2514.33,119.97,0.0888512,0.0361079,0.825312,31.3427,25.8675
628.318,2517.33,120.15,0.0888497,0.0353879,0.815793,30.862,25.177
628.318,2520.33,120.31,0.0888471,0.0347337,0.807061,30.422,24.5525
628.318,2523.33,120.45,0.0888478,0.034115,0.797956,30.013,23.9491
628.318,2526.33,120.56,0.0888479,0.0334906,0.787903,29.6082,23.3284
628.318,2529.33,120.75,0.0888474,0.0328692,0.777503,29.2061,22.7078
628.318,2532.33,120.9,0.0888451,0.0322878,0.767462,28.8299,22.1258
628.318,2535.33,121.07,0.0888446,0.0317384,0.758006,28.469,21.5797
628.318,2538.33,121.17,0.0888449,0.0311882,0.748412,28.1047,21.0339
628.318,2541.33,121.34,0.0888449,0.0306389,0.738706,27.7383,20.4905
628.318,2544.33,121.49,0.0888433,0.0301219,0.728724,27.4009,19.9677
628.318,2547.33,121.66,0.0888414,0.0296493,0.719631,27.0883,19.4936
628.318,2550.33,121.79,0.0888421,0.0291885,0.710447,26.7832,19.0281
628.318,2553.33,121.92,0.0888421,0.0287167,0.701057,26.4671,18.555
628.318,2556.33,122.1,0.0888415,0.0282523,0.691277,26.159,18.0831
628.318,2559.33,122.25,0.0888399,0.0278114,0.681974,25.8633,17.6381
628.318,2562.33,122.41,0.0888399,0.0274052,0.67312,25.5904,17.2254
628.318,2565.33,122.51,0.0888399,0.0270005,0.663375,25.3263,16.8008
628.318,2568.33,122.69,0.0888395,0.0266006,0.653562,25.0641,16.3809
628.318,2571.33,122.84,0.0888386,0.026226,0.644101,24.8184,15.9855
628.318,2574.33,123.02,0.0888373,0.0258739,0.635608,24.5801,15.6233
628.318,2577.33,123.14,0.0888376,0.0255297,0.626818,24.3494,15.2626
628.318,2580.33,123.27,0.0888378,0.0251754,0.617707,24.1097,14.8928
628.318,2583.33,123.45,0.0888373,0.0248265,0.608615,23.8723,14.5291
628.318,2586.33,123.61,0.0888359,0.024507,0.600248,23.6529,14.1976
628.318,2589.33,123.76,0.0888355,0.0242071,0.592178,23.4466,13.8846
628.318,2592.33,123.87,0.0888361,0.0239046,0.583567,23.2408,13.5626
628.318,2595.33,124.05,0.0888357,0.023602,0.574722,23.0348,13.2386
628.318,2598.33,124.18,0.088835,0.0233148,0.565991,22.8404,12.9274
628.318,2601.33,124.38,0.0888344,0.0230438,0.557905,22.6532,12.6383
628.318,2604.33,124.5,0.0888342,0.0227782,0.550288,22.4646,12.362
628.318,2607.33,124.62,0.0888345,0.0225151,0.541976,22.2827,12.0767
628.318,2610.33,124.81,0.0888337,0.0222536,0.533724,22.1001,11.7953
628.318,2613.33,124.94,0.088833,0.0220129,0.525862,21.9325,11.5335
628.318,2616.33,125.13,0.0888325,0.021786,0.518266,21.7743,11.2849
628.318,2619.33,125.22,0.0888331,0.0215557,0.510527,21.6118,11.0334
628.318,2622.33,125.4,0.088833,0.0213225,0.502644,21.4462,10.7798
628.318,2625.33,125.54,0.0888326,0.021098,0.495399,21.2819,10.5431
628.318,2628.33,125.72,0.0888313,0.0208955,0.488171,21.1384,10.3192
628.318,2631.33,125.87,0.0888316,0.0207036,0.48107,21.0026,10.1037
628.318,2634.33,125.97,0.088832,0.0205061,0.473677,20.8621,9.88187
628.318,2637.33,126.16,0.0888314,0.0203124,0.46625,20.7243,9.66271
628.318,2640.33,126.28,0.0888313,0.0201241,0.459248,20.5871,9.45456
628.318,2643.33,126.5,0.0888306,0.0199416,0.45285,20.4498,9.26072
628.318,2646.33,126.59,0.0888305,0.0197723,0.446292,20.326,9.07136
628.318,2649.33,126.74,0.0888305,0.0195969,0.439254,20.1983,8.87219
628.318,2652.33,126.89,0.0888302,0.0194284,0.432444,20.0747,8.68118
628.318,2655.33,127.04,0.0888298,0.0192686,0.425745,19.9581,8.49707
628.318,2658.33,127.24,0.0888297,0.0191152,0.419601,19.8429,8.32612
628.318,2661.33,127.33,0.0888299,0.0189626,0.413548,19.7268,8.15799
628.318,2664.33,127.51,0.08883,0.0188087,0.407153,19.6106,7.98453
628.318,2667.33,127.64,0.0888295,0.0186642,0.400641,19.5042,7.81418
628.318,2670.33,127.76,0.0888291,0.0185273,0.394283,19.4035,7.65047
628.318,2673.33,128,0.0888287,0.0184034,0.388898,19.3091,7.50926
628.318,2676.33,128.08,0.0888287,0.0182752,0.382951,19.2129,7.35761
628.318,2679.33,128.26,0.0888286,0.0181418,0.377157,19.1094,7.20725
628.318,2682.33,128.4,0.0888286,0.0180036,0.371542,18.9988,7.05886
628.318,2685.33,128.4,0.0888286,0.0178745,0.365888,18.8973,6.91428
628.318,2688.33,128.6,0.0888288,0.0177479,0.359516,18.8017,6.75953
628.318,2691.33,128.94,0.0888269,0.0176432,0.354331,18.7219,6.63375
628.318,2694.33,128.92,0.0888282,0.0175457,0.34952,18.6463,6.51723
628.318,2697.33,129.19,0.0888277,0.0174309,0.344148,18.5552,6.38575
628.318,2700.33,129.27,0.0888281,0.0173203,0.339221,18.4651,6.26377
628.318,2703.33,129.57,0.0888278,0.0172157,0.333712,18.3843,6.13508
628.318,2706.33,130.35,0.0888265,0.0171361,0.329421,18.3231,6.03603
628.318,2709.33,129.95,0.0888266,0.0170429,0.324474,18.25,5.92165
628.318,2712.33,131.67,0.0888255,0.0169721,0.320378,18.1962,5.82965
628.318,2715.33,132,0.0888262,0.0168987,0.317071,18.1347,5.75
628.318,2718.33,132.3,0.0888269,0.0168033,0.312452,18.056,5.64164
628.318,2721.33,132.8,0.0888242,0.016753,0.31036,18.0132,5.5906
628.318,2724.33,132.23,0.0888248,0.0167063,0.308087,17.9744,5.53769
628.318,2727.33,131.93,0.0888259,0.0166385,0.304819,17.9176,5.46164
628.318,2730.33,132.8,0.0888252,0.0165618,0.301544,17.8514,5.38299
628.318,2733.33,132.52,0.0888249,0.0165161,0.298346,17.8179,5.3159
628.318,2736.33,132.94,0.0888259,0.0164422,0.295242,17.753,5.24144
628.318,2739.33,132.74,0.0888247,0.0163959,0.29284,17.7148,5.1876
628.318,2742.33,132.22,0.0888255,0.0163455,0.289762,17.6748,5.12149
628.318,2745.33,133.53,0.0888248,0.0162808,0.287483,17.6157,5.0642
628.318,2748.33,133.71,0.0888259,0.0162295,0.283871,17.5767,4.98951
628.318,2751.33,133.77,0.0888258,0.0161592,0.279217,17.5218,4.89238
628.318,2754.33,133.72,0.0888245,0.016105,0.275781,17.4788,4.8203
628.318,2757.33,133.6,0.0888239,0.016059,0.27388,17.4375,4.77578
628.318,2760.33,133.39,0.0888249,0.0160139,0.27201,17.3965,4.73202
628.318,2763.33,133.11,0.0888251,0.0159508,0.269357,17.3395,4.67052
628.318,2766.33,133.35,0.0888254,0.0158975,0.265876,17.2966,4.59874
628.318,2769.33,133.77,0.0888245,0.015851,0.262415,17.2608,4.52951
628.318,2772.33,133.96,0.0888241,0.0158122,0.260072,17.2286,4.48069
628.318,2775.33,134.04,0.0888232,0.0157824,0.258764,17.2017,4.45118
628.318,2778.33,133.88,0.0888244,0.0157504,0.257279,17.1728,4.41819
628.318,2781.33,134.09,0.0888243,0.0157084,0.255208,17.1355,4.37313
628.318,2784.33,134.53,0.0888246,0.0156666,0.253572,17.0966,4.33522
628.318,2787.33,134.97,0.0888235,0.0156234,0.251337,17.0587,4.28749
628.318,2790.33,134.99,0.0888232,0.0156087,0.250031,17.048,4.26253
628.318,2793.33,134.76,0.0888242,0.0155749,0.248012,17.0189,4.22091
628.318,2796.33,134.88,0.0888246,0.0155333,0.245434,16.9835,4.16833
628.318,2799.33,135.11,0.0888244,0.0154995,0.243194,16.9554,4.12344
628.318,2802.33,135.48,0.0888233,0.0154775,0.241302,16.9389,4.0874
628.318,2805.33,135.38,0.0888242,0.0154407,0.238678,16.9085,4.03567
628.318,2808.33,135.59,0.0888237,0.015408,0.236578,16.8808,3.99362
628.318,2811.33,135.71,0.0888236,0.0153674,0.234803,16.8429,3.95477
628.318,2814.33,135.8,0.0888238,0.0153348,0.233152,16.8134,3.92008
628.318,2817.33,135.9,0.0888238,0.0153057,0.231593,16.7873,3.88781
628.318,2820.33,136,0.0888237,0.0152823,0.229958,16.7676,3.85585
628.318,2823.33,136.1,0.0888236,0.0152557,0.228319,16.7443,3.82306
628.318,2826.33,136.2,0.0888238,0.0152351,0.226637,16.7278,3.79114
628.318,2829.33,136.3,0.0888236,0.0152078,0.225069,16.7035,3.75945
628.318,2832.33,136.39,0.0888234,0.0151829,0.223308,16.6824,3.72531
628.318,2835.33,136.48,0.0888237,0.0151537,0.221549,16.6566,3.69024
628.318,2838.33,136.58,0.0888238,0.0151242,0.219375,16.6317,3.64858
628.318,2841.33,136.67,0.0888232,0.0150919,0.21774,16.6019,3.6149
628.318,2844.33,136.77,0.0888237,0.0150657,0.215967,16.5791,3.58054
628.318,2847.33,136.86,0.0888236,0.0150424,0.21433,16.559,3.54911
628.318,2850.33,136.96,0.0888237,0.0150159,0.213028,16.5342,3.52226
628.318,2853.33,137.06,0.0888234,0.0149964,0.2115,16.518,3.49355
628.318,2856.33,137.16,0.0888237,0.0149714,0.209657,16.4966,3.45862
628.318,2859.33,137.26,0.0888237,0.0149443,0.207643,16.4733,3.42055
628.318,2862.33,137.36,0.0888238,0.0149118,0.206015,16.4427,3.38745
628.318,2865.33,137.46,0.0888237,0.0148943,0.204688,16.4278,3.36258
628.318,2868.33,137.57,0.0888232,0.0148757,0.202358,16.4148,3.32168
628.318,2871.33,137.68,0.0888234,0.0148504,0.200361,16.3932,3.28457
628.318,2874.33,137.77,0.0888238,0.0148263,0.198608,16.372,3.25162
628.318,2877.33,137.86,0.088824,0.0148066,0.196998,16.3553,3.22197
628.318,2880.33,137.99,0.0888233,0.0147904,0.194804,16.3443,3.18393
628.318,2883.33,138.04,0.0888234,0.0147602,0.192387,16.3182,3.1394
628.318,2886.33,138.11,0.0888244,0.0147258,0.190415,16.2859,3.10109
628.318,2889.33,138.23,0.0888239,0.0146941,0.188744,16.256,3.06822
628.318,2892.33,138.24,0.0888239,0.0146743,0.186471,16.2407,3.02843
628.318,2895.33,137.65,0.0888237,0.0146514,0.183676,16.2235,2.97988
628.318,2898.33,137.88,0.0888235,0.0146287,0.181219,16.2055,2.93674
628.318,2901.33,138.59,0.0888233,0.0146048,0.179109,16.185,2.89889
628.318,2904.33,138.83,0.0888236,0.0145884,0.178068,16.1697,2.8793
628.318,2907.33,138.96,0.0888233,0.0145721,0.176356,16.1564,2.84927
628.318,2910.33,139.13,0.0888233,0.0145469,0.174531,16.1335,2.81579
628.318,2913.33,139.18,0.0888239,0.014516,0.172746,16.1039,2.7819
628.318,2916.33,139.32,0.0888242,0.0144948,0.170628,16.086,2.74472
628.318,2919.33,139.44,0.0888234,0.0144798,0.1681,16.0762,2.70242
628.318,2922.33,138.72,0.0888231,0.0144562,0.165917,16.0558,2.66394
628.318,2925.33,139.12,0.088824,0.0144369,0.163756,16.0397,2.6266
628.318,2928.33,139.85,0.0888232,0.0144264,0.162143,16.0324,2.59953
628.318,2931.33,140.1,0.0888231,0.0144041,0.159897,16.0132,2.56045
628.318,2934.33,140.27,0.0888239,0.0143762,0.158861,15.9846,2.53934
628.318,2937.33,140.42,0.088823,0.0143627,0.157029,15.9743,2.50842
628.318,2940.33,140.16,0.0888236,0.0143437,0.154905,15.9582,2.47201
628.318,2943.33,139.59,0.0888239,0.0143306,0.152714,15.9489,2.43561
628.318,2946.33,140.48,0.0888232,0.0143176,0.149987,15.9409,2.39094
628.318,2949.33,141.03,0.0888233,0.0142948,0.148357,15.9193,2.36175
628.318,2952.33,141.26,0.0888232,0.0142849,0.147315,15.9106,2.34387
628.318,2955.33,141.43,0.0888227,0.0142658,0.145413,15.8938,2.31116
628.318,2958.33,141.18,0.0888242,0.0142436,0.144011,15.8719,2.28574
628.318,2961.33,140.35,0.0888238,0.0142309,0.141518,15.8635,2.24496
628.318,2964.33,141.25,0.0888231,0.0142134,0.138766,15.85,2.19944
628.318,2967.33,141.98,0.0888232,0.014195,0.137855,15.8315,2.18245
628.318,2970.33,142.13,0.0888228,0.0141943,0.136274,15.8342,2.15779
628.318,2973.33,142.4,0.0888232,0.014178,0.134444,15.8197,2.12686
628.318,2976.33,142.33,0.0888237,0.0141637,0.13283,15.807,2.09965
628.318,2979.33,141.61,0.0888232,0.0141408,0.13078,15.7857,2.06446
628.318,2982.33,142.38,0.0888232,0.0141178,0.129064,15.7635,2.03451
628.318,2985.33,143.04,0.088823,0.0141172,0.128001,15.765,2.01795
628.318,2988.33,143.25,0.0888229,0.0141105,0.126002,15.7615,1.98599
628.318,2991.33,143.43,0.0888233,0.0140998,0.124857,15.7517,1.96671
628.318,2994.33,142.99,0.088823,0.0140931,0.122715,15.7484,1.93257
628.318,2997.33,142.74,0.0888237,0.0140739,0.12105,15.7299,1.9041
628.318,3000.33,143.7,0.0888228,0.0140593,0.119952,15.7158,1.88513
628.318,3003.33,144.15,0.0888229,0.0140491,0.117963,15.708,1.85298
628.318,3006.33,144.28,0.0888233,0.0140386,0.117119,15.6977,1.8385
628.318,3009.33,144.24,0.0888226,0.0140352,0.114991,15.6979,1.80512
628.318,3012.33,143.48,0.0888236,0.0140271,0.113526,15.6913,1.78138
628.318,3015.33,144.31,0.0888226,0.0140276,0.111384,15.6957,1.74826
628.318,3018.33,144.95,0.0888231,0.0140055,0.110107,15.6731,1.72572
628.318,3021.33,145.12,0.0888228,0.0139989,0.109175,15.6674,1.71049
628.318,3024.33,145.14,0.0888232,0.0139831,0.107587,15.6524,1.684
628.318,3027.33,144.32,0.0888233,0.0139787,0.105951,15.65,1.65813
628.318,3030.33,145.07,0.0888228,0.0139682,0.103975,15.6416,1.62634
628.318,3033.33,145.78,0.0888227,0.013961,0.103583,15.6342,1.61944
628.318,3036.33,145.96,0.0888223,0.0139658,0.101754,15.6425,1.59168
628.318,3039.33,145.92,0.0888235,0.0139528,0.10074,15.6294,1.5745
628.318,3042.33,145.06,0.0888225,0.0139428,0.0992032,15.6207,1.54962
628.318,3045.33,145.79,0.0888232,0.0139269,0.0981688,15.6043,1.53186
628.318,3048.33,146.54,0.0888227,0.0139319,0.0963807,15.6127,1.50476
628.318,3051.33,146.58,0.088823,0.0139227,0.0957508,15.6033,1.49403
628.318,3054.33,146.27,0.0888224,0.0139228,0.0941075,15.6059,1.46863
628.318,3057.33,145.64,0.0888231,0.0139248,0.0929321,15.6097,1.45064
628.318,3060.33,146.66,0.088823,0.0139104,0.090988,15.5964,1.41909
628.318,3063.33,147.21,0.0888227,0.0139026,0.0910338,15.5877,1.41901
628.318,3066.33,147.11,0.0888225,0.0138915,0.0895087,15.5773,1.3943
628.318,3069.33,146.51,0.0888227,0.0138905,0.0882491,15.578,1.37474
628.318,3072.33,146.36,0.0888228,0.0138878,0.0872295,15.5762,1.35871
628.318,3075.33,147.51,0.0888225,0.0138956,0.0859563,15.5868,1.33979
628.318,3078.33,147.78,0.0888226,0.0138865,0.0847527,15.5781,1.32029
628.318,3081.33,147.61,0.0888228,0.0138856,0.0836837,15.5785,1.30367
628.318,3084.33,146.89,0.0888233,0.0138733,0.0829799,15.5655,1.29162
628.318,3087.33,147.13,0.0888225,0.0138689,0.0815803,15.5625,1.26959
628.318,3090.33,148.22,0.0888224,0.0138593,0.0808554,15.5527,1.25752
628.318,3093.33,148.34,0.0888223,0.0138705,0.0798397,15.5665,1.24282