File: DMA/Sn_Pristine_AllData.xlsx - 200 Hz.csv
Angular frequency,Step time,Temperature,Oscillation strain,Oscillation stress,Tan(delta),Storage modulus,Loss modulus
rad/s,s,Celsius,%,MPa,,MPa,MPa
1256.64,875.729,40.05,0.0116761,0.218801,0.0123316,1873.79,23.1069
1256.64,880.341,40.1,0.0116774,0.218819,0.0123165,1873.72,23.0777
1256.64,884.991,40.16,0.0116797,0.218842,0.0123372,1873.56,23.1145
1256.64,889.641,40.23,0.0116817,0.218858,0.012326,1873.37,23.0912
1256.64,894.291,40.32,0.0116825,0.21886,0.0123273,1873.25,23.0922
1256.64,898.941,40.41,0.0116841,0.218878,0.0123331,1873.15,23.1019
1256.64,903.591,40.52,0.0116859,0.218893,0.0123295,1872.99,23.093
1256.64,908.241,40.63,0.0116878,0.218907,0.0123349,1872.81,23.1008
1256.64,912.891,40.75,0.0116909,0.218939,0.0123483,1872.58,23.1232
1256.64,917.541,40.87,0.0116938,0.218961,0.0123381,1872.31,23.1006
1256.64,922.191,41,0.0116963,0.218983,0.0123355,1872.1,23.0934
1256.64,926.841,41.13,0.0116982,0.218997,0.0123341,1871.91,23.0883
1256.64,931.491,41.26,0.011702,0.219032,0.0123362,1871.61,23.0886
1256.64,936.141,41.4,0.0117043,0.219052,0.0123335,1871.42,23.0811
1256.64,940.791,41.54,0.0117078,0.219084,0.0123288,1871.13,23.0689
1256.64,945.441,41.69,0.0117101,0.219102,0.012327,1870.91,23.0627
1256.64,950.091,41.84,0.0117139,0.219131,0.0123382,1870.54,23.0791
1256.64,954.741,41.99,0.0117176,0.219169,0.0123499,1870.28,23.0978
1256.64,959.391,42.15,0.011723,0.219208,0.0124323,1869.75,23.2453
1256.64,964.041,42.3,0.0117261,0.219235,0.0123776,1869.49,23.1397
1256.64,968.691,42.46,0.0117329,0.219288,0.0125749,1868.84,23.5006
1256.64,973.341,42.61,0.0117379,0.219335,0.0125879,1868.46,23.5201
1256.64,977.991,42.75,0.0117415,0.219359,0.0126164,1868.08,23.5684
1256.64,982.641,42.9,0.0117446,0.219385,0.0125405,1867.82,23.4234
1256.64,987.291,43.06,0.0117479,0.219413,0.0125516,1867.53,23.4405
1256.64,991.941,43.25,0.0117529,0.219459,0.0125065,1867.13,23.3514
1256.64,996.591,43.44,0.0117554,0.219475,0.0124891,1866.87,23.3156
1256.64,1001.24,43.63,0.0117597,0.219521,0.012474,1866.58,23.2837
1256.64,1005.89,43.83,0.0117621,0.219533,0.0124786,1866.29,23.2887
1256.64,1010.54,44.02,0.011766,0.219569,0.0124818,1865.98,23.2908
1256.64,1015.19,44.21,0.0117696,0.219604,0.0124441,1865.71,23.2171
1256.64,1019.84,44.41,0.0117716,0.219619,0.0124509,1865.52,23.2274
1256.64,1024.49,44.6,0.0117763,0.219662,0.0124742,1865.15,23.2662
1256.64,1029.14,44.8,0.0117793,0.219693,0.0124402,1864.93,23.2001
1256.64,1033.79,44.99,0.0117821,0.219711,0.0124924,1864.64,23.2937
1256.64,1038.44,45.19,0.0117864,0.219753,0.0124534,1864.32,23.217
1256.64,1043.09,45.38,0.0117879,0.219761,0.0124946,1864.15,23.2917
1256.64,1047.74,45.57,0.0117925,0.219801,0.0124765,1863.76,23.2532
1256.64,1052.39,45.77,0.011794,0.219811,0.0124984,1863.61,23.2922
1256.64,1057.04,45.96,0.0117988,0.219853,0.0125077,1863.2,23.3043
1256.64,1061.69,46.16,0.0118017,0.21988,0.0125363,1862.97,23.3548
1256.64,1066.34,46.36,0.0118065,0.219917,0.0125223,1862.54,23.3233
1256.64,1070.99,46.56,0.0118084,0.219928,0.0125601,1862.32,23.3909
1256.64,1075.64,46.76,0.011815,0.219989,0.0125414,1861.81,23.3497
1256.64,1080.29,46.97,0.0118168,0.219995,0.0126119,1861.57,23.4779
1256.64,1084.94,47.18,0.0118247,0.220067,0.0125994,1860.93,23.4465
1256.64,1089.59,47.39,0.0118287,0.220094,0.0126333,1860.53,23.5047
1256.64,1094.24,47.62,0.0118369,0.220172,0.0126164,1859.9,23.4651
1256.64,1098.89,47.84,0.0118428,0.220216,0.0126958,1859.33,23.6056
1256.64,1103.54,48.09,0.0118517,0.220298,0.0126651,1858.64,23.5398
1256.64,1108.19,48.36,0.0118593,0.220354,0.0127464,1857.91,23.6817
1256.64,1112.84,48.61,0.0118682,0.220436,0.0127174,1857.21,23.6189
1256.64,1117.49,48.84,0.0118768,0.2205,0.0127941,1856.41,23.7511
1256.64,1122.14,49.05,0.0118853,0.220583,0.0127638,1855.78,23.6867
1256.64,1126.79,49.24,0.0118954,0.22066,0.0127969,1854.85,23.7363
1256.64,1131.44,49.42,0.0119035,0.220729,0.0128507,1854.16,23.8273
1256.64,1136.09,49.58,0.0119151,0.220828,0.0128205,1853.2,23.759
1256.64,1140.74,49.72,0.0119241,0.220907,0.0128325,1852.46,23.7716
1256.64,1145.39,49.85,0.0119367,0.221006,0.0128435,1851.33,23.7777
1256.64,1150.04,50.01,0.011947,0.221092,0.0129111,1850.46,23.8914
1256.64,1154.69,50.22,0.011961,0.221212,0.0128471,1849.29,23.758
1256.64,1159.34,50.47,0.0119735,0.221313,0.0129417,1848.2,23.9188
1256.64,1163.99,50.77,0.0119882,0.221444,0.0129026,1847.02,23.8313
1256.64,1168.64,51.12,0.0120014,0.221555,0.0129925,1845.93,23.9832
1256.64,1173.29,51.42,0.0120159,0.221676,0.0130159,1844.7,24.0105
1256.64,1177.94,51.55,0.0120293,0.221793,0.0130297,1843.62,24.0217
1256.64,1182.59,51.76,0.0120452,0.221918,0.0132079,1842.21,24.3317
1256.64,1187.24,52.02,0.0120584,0.222033,0.0131488,1841.15,24.2088
1256.64,1191.89,52.27,0.0120687,0.222107,0.0132207,1840.2,24.3287
1256.64,1196.54,52.51,0.0120829,0.222233,0.0131463,1839.08,24.177
1256.64,1201.19,52.75,0.0120915,0.2223,0.0132335,1838.32,24.3274
1256.64,1205.84,52.99,0.0121054,0.222415,0.0132427,1837.15,24.3288
1256.64,1210.49,53.2,0.0121177,0.222525,0.0131705,1836.21,24.1838
1256.64,1215.14,53.41,0.0121285,0.222614,0.0132873,1835.29,24.3861
1256.64,1219.79,53.63,0.0121437,0.222743,0.0133347,1834.07,24.4567
1256.64,1224.44,53.86,0.0121585,0.222864,0.0133352,1832.83,24.4412
1256.64,1229.09,54.07,0.0121723,0.22298,0.0133296,1831.71,24.416
1256.64,1233.74,54.31,0.012183,0.223072,0.0133236,1830.86,24.3936
1256.64,1238.39,54.57,0.0121947,0.223161,0.0134502,1829.82,24.6114
1256.64,1243.04,54.82,0.0122084,0.22328,0.0134083,1828.74,24.5203
1256.64,1247.69,55.06,0.012216,0.223339,0.013515,1828.09,24.7066
1256.64,1252.34,55.31,0.012229,0.223448,0.0134628,1827.03,24.5968
1256.64,1256.99,55.54,0.0122366,0.223512,0.0134578,1826.42,24.5796
1256.64,1261.64,55.76,0.01225,0.223622,0.0135517,1825.32,24.7362
1256.64,1266.29,55.98,0.0122596,0.223706,0.0135015,1824.58,24.6345
1256.64,1270.94,56.22,0.0122692,0.223778,0.0136679,1823.73,24.9266
1256.64,1275.59,56.46,0.0122819,0.223899,0.0135967,1822.82,24.7843
1256.64,1280.24,56.7,0.0122851,0.223915,0.0136328,1822.49,24.8455
1256.64,1284.89,56.93,0.0122933,0.223978,0.0137537,1821.78,25.0563
1256.64,1289.54,57.15,0.0123016,0.224056,0.0136505,1821.18,24.8601
1256.64,1294.19,57.38,0.0123059,0.224081,0.0137183,1820.75,24.9776
1256.64,1298.84,57.62,0.0123188,0.224183,0.0138709,1819.67,25.2405
1256.64,1303.49,57.85,0.0123343,0.224309,0.0138873,1818.4,25.2527
1256.64,1308.14,58.08,0.0123516,0.22446,0.0139644,1817.07,25.3743
1256.64,1312.79,58.29,0.0123701,0.224608,0.0140925,1815.55,25.5856
1256.64,1317.44,58.51,0.0123857,0.224739,0.0140281,1814.33,25.4516
1256.64,1322.09,58.76,0.012399,0.224849,0.0140473,1813.26,25.4714
1256.64,1326.74,58.99,0.0124139,0.224971,0.0140871,1812.07,25.5268
1256.64,1331.39,59.13,0.0124312,0.225112,0.0140054,1810.68,25.3594
1256.64,1336.04,59.42,0.012452,0.225283,0.0140233,1809.03,25.3685
1256.64,1340.69,59.75,0.012474,0.225467,0.0140658,1807.32,25.4214
1256.64,1345.34,59.69,0.0124968,0.225647,0.0142745,1805.46,25.772
1256.64,1349.99,60.1,0.0125236,0.225874,0.0142238,1803.41,25.6513
1256.64,1354.64,60.45,0.01254,0.226014,0.0141635,1802.16,25.5249
1256.64,1359.29,60.41,0.0125551,0.226135,0.0142193,1800.96,25.6085
1256.64,1363.94,60.86,0.0125751,0.22629,0.0143023,1799.32,25.7345
1256.64,1368.59,60.77,0.0125941,0.226455,0.0141451,1797.92,25.4317
1256.64,1373.24,61.3,0.012618,0.226642,0.0143689,1795.99,25.8064
1256.64,1377.89,61.65,0.0126446,0.226866,0.0144492,1793.99,25.9216
1256.64,1382.54,61.19,0.0126605,0.226988,0.0145815,1792.69,26.1402
1256.64,1387.19,62,0.0126846,0.227181,0.0146978,1790.8,26.3209
1256.64,1391.84,62.4,0.0127012,0.227315,0.0147084,1789.53,26.3211
1256.64,1396.49,62.09,0.0127123,0.227397,0.0149065,1788.6,26.6617
1256.64,1401.14,62.83,0.012739,0.227614,0.0150163,1786.55,26.8274
1256.64,1405.79,62.84,0.0127555,0.227757,0.0150119,1785.36,26.8017
1256.64,1410.44,62.87,0.0127714,0.227879,0.0153012,1784.09,27.2987
1256.64,1415.09,63.49,0.0127894,0.22801,0.0155551,1782.59,27.7284
1256.64,1419.74,63.44,0.0127936,0.228039,0.0156945,1782.23,27.9712
1256.64,1424.39,64.06,0.0128108,0.22818,0.0157536,1780.93,28.056
1256.64,1429.04,63.97,0.0128311,0.22833,0.0160883,1779.28,28.6255
1256.64,1433.69,64.41,0.0128595,0.228558,0.0161691,1777.12,28.7344
1256.64,1438.34,64.97,0.0128827,0.228745,0.0163139,1775.36,28.963
1256.64,1442.99,64.42,0.0129055,0.228935,0.0162706,1773.69,28.8591
1256.64,1447.64,65.39,0.0129201,0.229044,0.0163554,1772.54,28.9907
1256.64,1452.29,64.66,0.0129579,0.229353,0.0163742,1769.74,28.9781
1256.64,1456.94,65.73,0.0129875,0.229587,0.0166061,1767.51,29.3515
1256.64,1461.59,66.2,0.0130137,0.229801,0.0167025,1765.6,29.4899
1256.64,1466.24,66.23,0.0130335,0.229957,0.0167124,1764.11,29.4826
1256.64,1470.89,66.74,0.0130537,0.230112,0.0167484,1762.56,29.5201
1256.64,1475.54,66.33,0.0130815,0.230332,0.0168957,1760.5,29.7448
1256.64,1480.19,66.69,0.0131149,0.230599,0.017103,1758.04,30.0678
1256.64,1484.84,66.91,0.0131471,0.23084,0.0175276,1755.55,30.7707
1256.64,1489.49,67.43,0.0131686,0.231004,0.0178209,1753.93,31.2566
1256.64,1494.14,66.98,0.0131847,0.231138,0.0178076,1752.8,31.2131
1256.64,1498.79,67.88,0.0132105,0.231325,0.0183442,1750.78,32.1166
1256.64,1503.44,68.03,0.0132321,0.231485,0.01872,1749.11,32.7433
1256.64,1508.09,68.49,0.0132465,0.231602,0.0189734,1748.08,33.167
1256.64,1512.74,68.84,0.0132548,0.231663,0.0191608,1747.44,33.4824
1256.64,1517.39,68.26,0.0132578,0.231689,0.0189866,1747.26,33.1745
1256.64,1522.04,69.2,0.0132812,0.231846,0.0195386,1745.35,34.1017
1256.64,1526.69,68.22,0.0133153,0.232103,0.0199727,1742.78,34.808
1256.64,1531.34,69.36,0.0133363,0.232268,0.0200752,1741.28,34.9565
1256.64,1535.99,70.06,0.0133567,0.232431,0.0200612,1739.83,34.903
1256.64,1540.64,69.75,0.0133681,0.232529,0.0199307,1739.08,34.6611
1256.64,1545.29,70.07,0.01341,0.232865,0.019978,1736.15,34.6849
1256.64,1549.94,69.88,0.0134473,0.233165,0.0200536,1733.57,34.7643
1256.64,1554.59,70.75,0.0134769,0.233382,0.0204056,1731.36,35.3294
1256.64,1559.24,70.49,0.0135005,0.23356,0.0204996,1729.65,35.4571
1256.64,1563.89,70.87,0.0135209,0.233727,0.0204041,1728.27,35.2639
1256.64,1568.54,71.75,0.013552,0.233963,0.0205998,1726.04,35.5562
1256.64,1573.19,71.33,0.0135855,0.234224,0.0208411,1723.7,35.9238
1256.64,1577.84,72.2,0.0136045,0.234369,0.0209511,1722.36,36.0853
1256.64,1582.49,72.23,0.013615,0.234445,0.0211149,1721.58,36.3509
1256.64,1587.14,71.94,0.0136447,0.23468,0.0212899,1719.54,36.6089
1256.64,1591.79,72.55,0.0136685,0.234872,0.0213438,1717.96,36.6677
1256.64,1596.44,72.33,0.0136724,0.234895,0.0215107,1717.62,36.9473
1256.64,1601.09,73.3,0.0136871,0.235014,0.0213146,1716.65,36.5898
1256.64,1605.74,73.34,0.0137011,0.235102,0.0216022,1715.53,37.0593
1256.64,1610.39,73.02,0.0137275,0.235315,0.0215411,1713.78,36.9167
1256.64,1615.04,73.51,0.0137679,0.235634,0.021555,1711.07,36.8822
1256.64,1619.69,73.33,0.0137976,0.235865,0.0216865,1709.06,37.0636
1256.64,1624.34,73.55,0.0138274,0.236095,0.0216804,1707.04,37.0093
1256.64,1628.99,74.03,0.0138744,0.236477,0.0214215,1704.03,36.5028
1256.64,1633.64,74.31,0.0139031,0.236695,0.0216039,1702.06,36.7712
1256.64,1638.29,74.1,0.013922,0.236842,0.0214421,1700.81,36.469
1256.64,1642.94,74.51,0.013976,0.237251,0.0215243,1697.17,36.5304
1256.64,1647.59,74.91,0.0139977,0.237422,0.0215469,1695.75,36.5382
1256.64,1652.24,75.07,0.0140221,0.237627,0.0212929,1694.28,36.076
1256.64,1656.89,75,0.0140614,0.237938,0.0212991,1691.76,36.0329
1256.64,1661.54,75.44,0.0140799,0.238068,0.0215221,1690.44,36.382
1256.64,1666.19,75.96,0.0140973,0.238196,0.0215137,1689.26,36.3423
1256.64,1670.84,75.9,0.0141407,0.238536,0.021289,1686.5,35.9038
1256.64,1675.49,75.95,0.0141928,0.238941,0.0214266,1683.14,36.064
1256.64,1680.14,76.56,0.0142419,0.239296,0.0218812,1679.82,36.7565
1256.64,1684.79,76.92,0.0142923,0.239696,0.0217894,1676.7,36.5343
1256.64,1689.44,76.8,0.0143384,0.240058,0.0216586,1673.84,36.253
1256.64,1694.09,77.03,0.0143766,0.240322,0.0220923,1671.22,36.921
1256.64,1698.74,77.68,0.014428,0.24073,0.0219307,1668.09,36.5825
1256.64,1703.39,77.85,0.0144599,0.240973,0.0218968,1666.09,36.4819
1256.64,1708.04,77.74,0.0145109,0.241368,0.02198,1662.95,36.5515
1256.64,1712.69,78.16,0.0145154,0.241389,0.0221283,1662.58,36.79
1256.64,1717.34,78.76,0.0145704,0.241809,0.0219342,1659.19,36.3929
1256.64,1721.99,78.75,0.0146117,0.242121,0.0218767,1656.64,36.2418
1256.64,1726.64,78.73,0.0146921,0.242739,0.0218608,1651.78,36.1092
1256.64,1731.29,79.33,0.014737,0.243074,0.022128,1649.01,36.4892
1256.64,1735.94,79.76,0.0147935,0.243493,0.0221977,1645.55,36.5274
1256.64,1740.59,79.62,0.0148539,0.243945,0.0220826,1641.89,36.2571
1256.64,1745.24,79.77,0.0149212,0.244442,0.0226165,1637.8,37.0414
1256.64,1749.89,80.47,0.0149609,0.244739,0.0225863,1635.44,36.9385
1256.64,1754.54,80.69,0.0149962,0.245,0.0226877,1633.32,37.0564
1256.64,1759.19,80.5,0.0150603,0.245451,0.0231961,1629.34,37.7945
1256.64,1763.84,80.88,0.0151148,0.24586,0.0232377,1626.18,37.7886
1256.64,1768.49,81.55,0.0151948,0.246462,0.0231999,1621.58,37.6204
1256.64,1773.14,81.57,0.0152732,0.247034,0.0236047,1616.98,38.1685
1256.64,1777.79,81.44,0.015334,0.247486,0.0232993,1613.53,37.594
1256.64,1782.44,82.01,0.0154016,0.247958,0.0239933,1609.49,38.617
1256.64,1787.09,82.55,0.0154745,0.248496,0.0241341,1605.37,38.7442
1256.64,1791.74,82.46,0.0155344,0.248934,0.0243488,1601.99,39.0066
1256.64,1796.39,82.42,0.0156051,0.249436,0.0243626,1597.95,38.9302
1256.64,1801.04,83.08,0.0156819,0.249979,0.0248076,1593.57,39.5327
1256.64,1805.69,83.52,0.0157641,0.250578,0.0250284,1589.05,39.7714
1256.64,1810.34,83.39,0.0158608,0.251274,0.0252492,1583.75,39.9884
1256.64,1814.99,83.4,0.0159305,0.251754,0.0255872,1579.81,40.4231
1256.64,1819.64,84.05,0.0160304,0.252466,0.0260159,1574.38,40.959
1256.64,1824.29,84.48,0.0161061,0.253002,0.0262834,1570.3,41.2728
1256.64,1828.94,84.42,0.0161916,0.253601,0.0265837,1565.7,41.6222
1256.64,1833.59,84.38,0.0162829,0.254221,0.0271794,1560.7,42.4189
1256.64,1838.24,84.89,0.0164007,0.255065,0.0273351,1554.63,42.4958
1256.64,1842.89,85.42,0.0165065,0.255803,0.0277687,1549.12,43.017
1256.64,1847.54,85.55,0.0166162,0.256555,0.0282078,1543.39,43.5356
1256.64,1852.19,85.45,0.0167279,0.257337,0.0284867,1537.74,43.8053
1256.64,1856.84,85.64,0.0168231,0.257974,0.029197,1532.8,44.753
1256.64,1861.49,86.19,0.0169385,0.25876,0.0296385,1526.97,45.2571
1256.64,1866.14,86.6,0.0170672,0.25964,0.0301205,1520.59,45.801
1256.64,1870.79,86.7,0.017196,0.260515,0.0307621,1514.25,46.5817
1256.64,1875.44,86.65,0.0173219,0.261355,0.031273,1508.07,47.1619
1256.64,1880.09,86.84,0.0174625,0.262301,0.0318649,1501.32,47.8394
1256.64,1884.74,87.35,0.0175797,0.263079,0.0325128,1495.71,48.6296
1256.64,1889.39,87.78,0.0177193,0.263996,0.0332282,1489.06,49.4787
1256.64,1894.04,87.85,0.0178719,0.265009,0.0338209,1481.98,50.1218
1256.64,1898.69,87.92,0.0180187,0.265955,0.0347853,1475.1,51.3118
1256.64,1903.34,87.96,0.0181822,0.267027,0.0354669,1467.7,52.0546
1256.64,1907.99,88.22,0.0183263,0.267954,0.036411,1461.16,53.2025
1256.64,1912.64,88.76,0.0185017,0.269073,0.0373486,1453.3,54.2787
1256.64,1917.29,89.55,0.018661,0.270091,0.0382347,1446.3,55.2988
1256.64,1921.94,90.45,0.0188214,0.271107,0.0391475,1439.32,56.3457
1256.64,1926.59,90.76,0.018995,0.272202,0.0401168,1431.87,57.4422
1256.64,1931.24,91.42,0.0191511,0.273181,0.040938,1425.25,58.347
1256.64,1935.89,91.67,0.0192461,0.273795,0.0413169,1421.39,58.7274
1256.64,1940.54,91,0.0193524,0.274453,0.0417736,1416.95,59.1912
1256.64,1945.19,91.67,0.0195114,0.275428,0.0426781,1410.34,60.1906
1256.64,1949.84,91.12,0.0196599,0.27634,0.0436155,1404.27,61.2479
1256.64,1954.49,90.86,0.0198402,0.277459,0.044416,1397.09,62.0532
1256.64,1959.14,92.86,0.0200166,0.278509,0.0457206,1389.93,63.5486
1256.64,1963.79,92.78,0.0202035,0.279631,0.0468931,1382.55,64.832
1256.64,1968.44,93.29,0.020416,0.280896,0.0482644,1374.26,66.3278
1256.64,1973.09,92.34,0.020556,0.281742,0.0489368,1368.97,66.9932
1256.64,1977.74,93.16,0.0207222,0.28272,0.0501327,1362.62,68.3121
1256.64,1982.39,92.95,0.0208972,0.283739,0.0512835,1356,69.5406
1256.64,1987.04,91.93,0.0210898,0.284873,0.0522872,1348.92,70.5311
1256.64,1991.69,92.64,0.0212826,0.285958,0.0540212,1341.67,72.4785
1256.64,1996.34,93.6,0.0214777,0.287084,0.0553304,1334.62,73.845
1256.64,2000.99,94.24,0.0216522,0.288092,0.0562706,1328.44,74.7521
1256.64,2005.64,94.02,0.0218883,0.289422,0.0577125,1320.07,76.1845
1256.64,2010.29,94.35,0.0221493,0.290892,0.0595659,1311,78.0908
1256.64,2014.94,94.74,0.0223223,0.291842,0.061024,1304.97,79.6345
1256.64,2019.59,94.41,0.0224753,0.292691,0.0620357,1299.78,80.6329
1256.64,2024.24,94.56,0.022679,0.293799,0.0637603,1292.84,82.4319
1256.64,2028.89,93.96,0.0228933,0.294973,0.064978,1285.76,83.5458
1256.64,2033.54,94.66,0.0230935,0.296052,0.0665393,1279.14,85.1133
1256.64,2038.19,95.56,0.0232858,0.297085,0.0680351,1272.88,86.6006
1256.64,2042.84,94.9,0.0235039,0.298232,0.0696134,1265.8,88.1167
1256.64,2047.49,94.86,0.0237264,0.299417,0.0712568,1258.77,89.6956
1256.64,2052.14,95.04,0.0239984,0.300819,0.0735357,1250.12,91.9286
1256.64,2056.79,94.8,0.0243277,0.302529,0.0759152,1239.99,94.1341
1256.64,2061.44,94.61,0.0246406,0.304112,0.0785643,1230.4,96.6656
1256.64,2066.09,95.05,0.0249693,0.305779,0.0811037,1220.61,98.9961
1256.64,2070.74,95.38,0.0253071,0.307443,0.084135,1210.57,101.852
1256.64,2075.39,95.16,0.0256939,0.309359,0.0870606,1199.48,104.427
1256.64,2080.04,95.22,0.0260858,0.311245,0.0903653,1188.32,107.383
1256.64,2084.69,95.83,0.0264965,0.313222,0.0937472,1176.96,110.337
1256.64,2089.34,96.06,0.0269314,0.31527,0.0973509,1165.13,113.427
1256.64,2093.99,95.88,0.0273748,0.317314,0.10122,1153.25,116.732
1256.64,2098.64,96.13,0.027847,0.319463,0.105301,1140.9,120.138
1256.64,2103.29,96.78,0.0283737,0.321845,0.109598,1127.56,123.577
1256.64,2107.94,96.91,0.0289403,0.32436,0.114327,1113.54,127.307
1256.64,2112.59,96.8,0.0295109,0.326815,0.119271,1099.65,131.156
1256.64,2117.24,97.19,0.0300718,0.329185,0.124276,1086.31,135.001
1256.64,2121.89,97.8,0.0306954,0.331818,0.12929,1072.08,138.609
1256.64,2126.54,97.89,0.0313624,0.334573,0.134588,1057.26,142.295
1256.64,2131.19,97.86,0.0320384,0.337292,0.140091,1042.59,146.058
1256.64,2135.84,98.31,0.032737,0.340045,0.146008,1027.82,150.07
1256.64,2140.49,98.87,0.0334891,0.342926,0.152249,1012.33,154.126
1256.64,2145.14,99.01,0.0342944,0.345966,0.158862,996.32,158.277
1256.64,2149.79,99.02,0.0351241,0.349002,0.165699,980.259,162.428
1256.64,2154.44,99.39,0.0359921,0.35212,0.17271,964.054,166.502
1256.64,2159.09,99.99,0.036921,0.355387,0.180007,947.334,170.527
1256.64,2163.74,100.22,0.0378955,0.35872,0.187661,930.362,174.593
1256.64,2168.39,100.22,0.0389198,0.362109,0.195782,913.062,178.761
1256.64,2173.04,100.46,0.0399922,0.365579,0.204059,895.668,182.769
1256.64,2177.69,101.02,0.041108,0.36906,0.212759,878.127,186.83
1256.64,2182.34,101.43,0.042308,0.372712,0.221925,860.026,190.862
1256.64,2186.99,101.51,0.0435899,0.376525,0.231207,841.589,194.581
1256.64,2191.64,101.59,0.0449408,0.380376,0.241059,822.824,198.349
1256.64,2196.29,101.96,0.0463827,0.384371,0.251339,803.697,202
1256.64,2200.94,102.49,0.0479122,0.388497,0.261681,784.438,205.273
1256.64,2205.59,102.8,0.0495914,0.392856,0.273015,764.215,208.642
1256.64,2210.24,102.85,0.051325,0.397199,0.284337,744.383,211.655
1256.64,2214.89,103.04,0.0532373,0.401791,0.296404,723.6,214.478
1256.64,2219.54,103.4,0.055324,0.406672,0.308912,702.326,216.957
1256.64,2224.19,103.78,0.0574627,0.411452,0.321265,681.717,219.011
1256.64,2228.84,104.24,0.0600197,0.41695,0.33544,658.622,220.928
1256.64,2233.49,104.23,0.0625507,0.422123,0.349166,637.128,222.463
1256.64,2238.14,104.39,0.0653483,0.427554,0.363923,614.822,223.748
1256.64,2242.79,104.75,0.068581,0.433538,0.380053,590.917,224.58
1256.64,2247.44,105.37,0.0721996,0.439909,0.397397,566.223,225.015
1256.64,2252.09,105.44,0.0759238,0.446,0.415041,542.557,225.183
1256.64,2256.74,105.59,0.0799639,0.452272,0.432935,519.04,224.711
1256.64,2261.39,106.12,0.0845627,0.459029,0.452232,494.601,223.675
1256.64,2266.04,106.29,0.0877517,0.45609,0.472926,469.856,222.207
1256.64,2270.69,106.38,0.0877504,0.437129,0.493188,446.77,220.342
1256.64,2275.34,106.88,0.087745,0.419025,0.513078,424.887,218
1256.64,2279.99,107.09,0.087747,0.401711,0.533083,403.988,215.359
1256.64,2284.64,107.13,0.0877459,0.384914,0.552921,383.894,212.263
1256.64,2289.29,107.46,0.0877455,0.368059,0.573843,363.816,208.773
1256.64,2293.94,107.62,0.0877418,0.353335,0.591786,346.561,205.09
1256.64,2298.59,107.91,0.0877407,0.339113,0.61018,329.925,201.313
1256.64,2303.24,108.23,0.08774,0.325359,0.628494,313.962,197.323
1256.64,2307.89,108.39,0.0877389,0.3118,0.647141,298.349,193.074
1256.64,2312.54,108.67,0.0877345,0.299302,0.6643,284.16,188.768
1256.64,2317.19,108.92,0.0877337,0.287848,0.680681,271.223,184.616
1256.64,2321.84,109.09,0.0877342,0.276607,0.697385,258.604,180.346
1256.64,2326.49,109.45,0.0877325,0.265825,0.713371,246.664,175.963
1256.64,2331.29,109.6,0.0877311,0.2554,0.729466,235.191,171.564
1256.64,2335.94,109.94,0.0877299,0.245649,0.744595,224.586,167.226
1256.64,2340.59,110.04,0.0877308,0.236404,0.759449,214.595,162.974
1256.64,2345.24,110.22,0.0877292,0.227112,0.774973,204.624,158.578
1256.64,2349.89,110.5,0.0877254,0.219031,0.787602,196.146,154.485
1256.64,2354.54,110.83,0.0877271,0.211123,0.80097,187.834,150.449
1256.64,2359.19,110.91,0.0877301,0.202986,0.815169,179.339,146.192
1256.64,2363.84,111.57,0.0877263,0.196354,0.825986,172.57,142.54
1256.64,2368.49,113.12,0.0877202,0.18879,0.839083,164.868,138.338
1256.64,2373.14,113.31,0.087723,0.183803,0.84706,159.878,135.426
1256.64,2377.79,112.7,0.087721,0.179394,0.853999,155.513,132.808
1256.64,2382.44,112.65,0.0877246,0.173534,0.864607,149.641,129.38
1256.64,2387.09,112.64,0.0877258,0.167349,0.875712,143.514,125.677
1256.64,2391.74,112.57,0.0877276,0.160054,0.888477,136.389,121.178
1256.64,2396.39,113.09,0.0877213,0.154291,0.897457,130.901,117.478
1256.64,2401.04,114.3,0.0877211,0.148432,0.908053,125.27,113.751
1256.64,2405.69,114.8,0.0877201,0.143886,0.915295,120.997,110.748
1256.64,2410.34,115.51,0.0877016,0.141745,0.916707,119.138,109.214
1256.64,2414.99,114.31,0.0877167,0.140045,0.920624,117.459,108.136
1256.64,2419.64,115.35,0.0877094,0.136429,0.925407,114.163,105.647
1256.64,2424.29,114.23,0.0877157,0.13381,0.928894,111.77,103.822
1256.64,2428.94,115.3,0.0877213,0.130025,0.934911,108.275,101.228
1256.64,2433.59,116.33,0.0877119,0.125907,0.940194,104.581,98.3266
1256.64,2438.24,116.54,0.0877247,0.122627,0.945325,101.582,96.028
1256.64,2442.89,117.01,0.0877116,0.117188,0.951847,96.7753,92.1153
1256.64,2447.54,116.79,0.0877073,0.116993,0.950424,96.687,91.8936
1256.64,2452.19,116.75,0.0877145,0.113919,0.954951,93.9264,89.6951
1256.64,2456.84,116.89,0.0877043,0.112988,0.953516,93.2364,88.9024
1256.64,2461.49,117.53,0.0877087,0.111773,0.956141,92.1088,88.069
1256.64,2466.14,117.16,0.0877124,0.110713,0.958198,91.1371,87.3274
1256.64,2470.79,117.33,0.0877107,0.107603,0.960823,88.4631,84.9975
1256.64,2475.44,117.69,0.0877107,0.10667,0.960474,87.7112,84.2444
1256.64,2480.09,117.88,0.0877083,0.105043,0.961831,86.3172,83.0226
1256.64,2484.74,117.42,0.0877119,0.102642,0.964404,84.2328,81.2345
1256.64,2489.39,117.73,0.087714,0.100356,0.965532,82.308,79.471
1256.64,2494.04,117.5,0.0877125,0.0984955,0.965577,80.7817,78.001
1256.64,2498.69,116.98,0.0877128,0.0959637,0.966384,78.6733,76.0286
1256.64,2503.34,118.61,0.0877106,0.0942464,0.965528,77.3004,74.6357
1256.64,2507.99,118.47,0.0877222,0.0909559,0.967113,74.5326,72.0815
1256.64,2512.64,117.69,0.0877116,0.0887221,0.963938,72.8264,70.2001
1256.64,2517.29,118.38,0.0877094,0.0866002,0.963479,71.1027,68.506
1256.64,2521.94,119.11,0.0877165,0.0849027,0.962715,69.73,67.1301
1256.64,2526.59,118.82,0.087708,0.0817192,0.960566,67.1939,64.5442
1256.64,2531.24,118.68,0.0877116,0.0798017,0.957426,65.7177,62.9198
1256.64,2535.89,120.09,0.08771,0.0784847,0.954783,64.7196,61.7932
1256.64,2540.54,119.97,0.0877149,0.0755498,0.950499,62.4294,59.3391
1256.64,2545.19,118.93,0.0877125,0.0737674,0.94621,61.089,57.803
1256.64,2549.84,120.73,0.0877089,0.0723864,0.942951,60.0453,56.6198
1256.64,2554.49,120.63,0.0877175,0.070367,0.938632,58.4904,54.901
1256.64,2559.14,119.79,0.0877097,0.0682469,0.932664,56.9024,53.0708
1256.64,2563.79,121.02,0.0877085,0.0667432,0.927152,55.8026,51.7375
1256.64,2568.44,121.4,0.0877114,0.0654647,0.922558,54.8573,50.609
1256.64,2573.09,121.13,0.0877086,0.0631054,0.912569,53.1458,48.4992
1256.64,2577.74,120.92,0.0877113,0.0616462,0.906785,52.065,47.2118
1256.64,2582.39,122.3,0.0877067,0.0605801,0.902496,51.2765,46.2768
1256.64,2587.04,122.21,0.0877148,0.058501,0.892826,49.7507,44.4188
1256.64,2591.69,121.14,0.0877122,0.0571099,0.885001,48.7583,43.1511
1256.64,2596.34,122.94,0.0877068,0.0560484,0.878217,48.0162,42.1686
1256.64,2600.99,122.85,0.0877162,0.0546179,0.869066,46.9984,40.8447
1256.64,2605.64,121.96,0.0877096,0.0530472,0.858659,45.8858,39.4002
1256.64,2610.29,123.3,0.0877057,0.0519046,0.851192,45.0654,38.3593
1256.64,2614.94,123.59,0.0877125,0.0509324,0.844727,44.359,37.4713
1256.64,2619.59,123.1,0.0877079,0.0492936,0.830935,43.2265,35.9184
1256.64,2624.24,123.48,0.0877067,0.0482193,0.820864,42.4947,34.8823
1256.64,2628.89,124.45,0.0877087,0.0474585,0.813463,41.9752,34.1453
1256.64,2633.54,124.29,0.0877096,0.0459551,0.799277,40.9278,32.7126
1256.64,2638.19,123.63,0.0877085,0.0449417,0.790565,40.1959,31.7775
1256.64,2642.84,125.23,0.0877065,0.0441954,0.782181,39.6907,31.0453
1256.64,2647.49,125.16,0.087712,0.0430329,0.768908,38.8934,29.9055
1256.64,2652.14,124.08,0.0877089,0.0420695,0.757679,38.2306,28.9665
1256.64,2656.79,125.85,0.0877076,0.0413435,0.747939,37.7476,28.2329
1256.64,2661.44,125.81,0.0877109,0.0404848,0.737596,37.1457,27.3985
1256.64,2666.09,124.88,0.0877064,0.0394405,0.724542,36.4151,26.3843
1256.64,2670.74,126.33,0.0877058,0.0387286,0.71468,35.9256,25.6754
1256.64,2675.39,126.55,0.0877095,0.0381361,0.705349,35.5307,25.0615
1256.64,2680.04,125.84,0.0877073,0.0371548,0.689764,34.8713,24.053
1256.64,2684.69,126.74,0.0877061,0.036447,0.679063,34.3786,23.3452
1256.64,2689.34,127.37,0.0877054,0.035937,0.672301,34.0043,22.8611
1256.64,2693.99,126.92,0.0877059,0.0350394,0.657048,33.3888,21.938
1256.64,2698.64,127.11,0.0877074,0.0344253,0.645168,32.9817,21.2787
1256.64,2703.29,128.18,0.0877082,0.0340048,0.637173,32.6971,20.8337
1256.64,2707.94,127.92,0.0877079,0.033198,0.622652,32.1312,20.0066
1256.64,2712.59,127.51,0.0877066,0.0326286,0.611589,31.7371,19.41
1256.64,2717.24,128.95,0.0877041,0.0322211,0.603784,31.4503,18.9892
1256.64,2721.89,128.82,0.0877046,0.0315865,0.589979,31.0186,18.3003
1256.64,2726.54,128.01,0.0877053,0.0310736,0.578112,30.6727,17.7323
1256.64,2731.19,129.66,0.087705,0.0306321,0.571164,30.3279,17.3222
1256.64,2735.84,129.6,0.0877081,0.0301036,0.558452,29.9663,16.7348
1256.64,2740.49,128.59,0.0877086,0.0296771,0.546468,29.6919,16.2257
1256.64,2745.14,130.33,0.0877072,0.0292889,0.538114,29.4066,15.8241
1256.64,2749.79,130.32,0.0877091,0.0288349,0.527158,29.0821,15.3309
1256.64,2754.44,129.3,0.0877085,0.0284012,0.516504,28.7704,14.86
1256.64,2759.09,130.99,0.0877059,0.0280543,0.50775,28.5209,14.4815
1256.64,2763.74,131.03,0.0877068,0.0277155,0.498588,28.28,14.1001
1256.64,2768.39,130.04,0.0877054,0.0272735,0.486071,27.9679,13.5944
1256.64,2773.04,131.63,0.0877045,0.0269453,0.479074,27.7073,13.2738
1256.64,2777.69,131.77,0.0877048,0.0266715,0.471149,27.5101,12.9613
1256.64,2782.34,130.8,0.0877038,0.0262873,0.458286,27.2477,12.4872
1256.64,2786.99,132.28,0.0877033,0.0259948,0.45029,27.026,12.1695
1256.64,2791.64,132.51,0.0877046,0.0257357,0.4436,26.823,11.8987
1256.64,2796.29,131.57,0.0877041,0.0254197,0.432764,26.5994,11.5113
1256.64,2800.94,132.93,0.0877031,0.0251444,0.423329,26.4016,11.1766
1256.64,2805.59,133.26,0.087704,0.0249171,0.416028,26.231,10.9128
1256.64,2810.24,132.33,0.0877036,0.0246047,0.405559,25.9977,10.5436
1256.64,2814.89,133.59,0.0877036,0.0243686,0.399594,25.8015,10.3101
1256.64,2819.54,134,0.0877037,0.0242002,0.39284,25.6825,10.0891
1256.64,2824.19,133.09,0.0877029,0.0238981,0.383018,25.4462,9.74636
1256.64,2828.84,134.28,0.0877029,0.02366,0.376087,25.2507,9.49648
1256.64,2833.49,134.74,0.0877045,0.0235325,0.369421,25.1691,9.29798
1256.64,2838.14,133.84,0.0877041,0.0233174,0.360033,25.0146,9.00608
1256.64,2842.79,134.97,0.0877023,0.0230952,0.352716,24.8341,8.75939
1256.64,2847.44,135.48,0.0877034,0.0228935,0.347221,24.6591,8.56216
1256.64,2852.09,134.58,0.0877037,0.0227383,0.336912,24.5693,8.27768
1256.64,2856.74,135.68,0.0877036,0.0225679,0.331501,24.4249,8.09689
1256.64,2861.39,136.21,0.0877044,0.0224441,0.325673,24.3328,7.92453
1256.64,2866.04,135.31,0.0877035,0.0222134,0.319287,24.1278,7.7037
1256.64,2870.69,136.39,0.0877043,0.0220705,0.312131,24.0217,7.49793
1256.64,2875.34,136.94,0.0877046,0.021978,0.305965,23.9626,7.33171
1256.64,2879.99,136.04,0.0877053,0.0217977,0.299515,23.8083,7.13094
1256.64,2884.64,137.11,0.0877056,0.0216117,0.2934,23.6445,6.93729
1256.64,2889.29,137.66,0.0877053,0.021514,0.287575,23.5744,6.77941
1256.64,2893.94,136.75,0.0877053,0.0214214,0.279934,23.5201,6.58408
1256.64,2898.59,137.82,0.0877033,0.021222,0.274927,23.3318,6.41452
1256.64,2903.24,138.39,0.087705,0.0211631,0.271051,23.2895,6.31265
1256.64,2907.89,137.48,0.0877035,0.0210233,0.264867,23.1718,6.13745
1256.64,2912.54,138.55,0.0877044,0.0208972,0.258761,23.0671,5.96888
1256.64,2917.19,139.11,0.0877045,0.0207937,0.255531,22.9708,5.86974
1256.64,2921.84,138.21,0.0877048,0.0206941,0.245913,22.9125,5.63447
1256.64,2926.49,139.26,0.087705,0.0206164,0.241932,22.8474,5.52751
1256.64,2931.14,139.83,0.0877048,0.0204788,0.238429,22.7131,5.41546
1256.64,2935.79,138.94,0.0877042,0.0204105,0.233243,22.6637,5.28615
1256.64,2940.44,139.96,0.0877031,0.0203403,0.227402,22.6149,5.14266
1256.64,2945.09,140.56,0.0877038,0.020274,0.224877,22.5533,5.0717
1256.64,2949.74,139.69,0.087704,0.0201128,0.219649,22.3987,4.91984
1256.64,2954.39,140.64,0.0877039,0.0200895,0.215482,22.3921,4.8251
1256.64,2959.04,141.29,0.0877039,0.0200636,0.211954,22.3794,4.74341
1256.64,2963.69,140.45,0.0877038,0.0199346,0.205558,22.264,4.57654
1256.64,2968.34,141.3,0.0877045,0.0198378,0.202383,22.1694,4.4867
1256.64,2972.99,142.03,0.0877044,0.0198193,0.198657,22.1648,4.40318
1256.64,2977.64,141.25,0.0877042,0.0197279,0.194241,22.081,4.28904
1256.64,2982.29,141.94,0.0877042,0.0196516,0.189811,22.0137,4.17844
1256.64,2986.94,142.76,0.087704,0.0195787,0.186745,21.9443,4.09798
1256.64,2991.59,142.05,0.0877047,0.0195958,0.180198,21.9888,3.96233
1256.64,2996.24,142.52,0.0877032,0.0195267,0.176735,21.9248,3.87488
1256.64,3000.89,143.51,0.0877039,0.0194399,0.175574,21.8314,3.83304
1256.64,3005.54,142.9,0.0877049,0.0194275,0.170361,21.8364,3.72006
1256.64,3010.19,143.08,0.0877034,0.0193673,0.166929,21.7813,3.63592
1256.64,3014.84,144.26,0.0877035,0.0193238,0.164901,21.7395,3.58486
1256.64,3019.49,143.78,0.0877034,0.0192141,0.162312,21.625,3.51
1256.64,3024.14,143.57,0.0877047,0.0191797,0.158365,21.5994,3.42059
1256.64,3028.79,145.01,0.0877039,0.0191887,0.155413,21.6194,3.35993
1256.64,3033.44,144.64,0.0877033,0.0191832,0.152811,21.6218,3.30406
1256.64,3038.09,144.07,0.0877042,0.0190428,0.150341,21.4712,3.228
1256.64,3042.74,145.74,0.087704,0.0190572,0.146932,21.4981,3.15877
1256.64,3047.39,145.49,0.0877041,0.0190684,0.144878,21.5171,3.11736
1256.64,3052.04,144.58,0.087704,0.0189548,0.141004,21.4006,3.01757
1256.64,3056.69,146.43,0.0877042,0.0189276,0.139235,21.375,2.97615
1256.64,3061.34,146.3,0.0877037,0.0189071,0.135027,21.3641,2.88473
1256.64,3065.99,145.22,0.0877043,0.018911,0.131104,21.3793,2.80292
1256.64,3070.64,147.02,0.0877033,0.0188462,0.130921,21.3068,2.78952
1256.64,3075.29,147.05,0.0877041,0.0187973,0.129043,21.2563,2.74298
1256.64,3079.94,146.12,0.0877038,0.0187795,0.125264,21.2464,2.6614
1256.64,3084.59,146.9,0.0877037,0.0188073,0.122883,21.2841,2.61546
1256.64,3089.24,147.71,0.0877037,0.0187396,0.120587,21.2133,2.55805
1256.64,3093.89,147.15,0.087704,0.0187507,0.117092,21.2344,2.48637
1256.64,3098.54,146.75,0.0877034,0.0187601,0.116034,21.2479,2.46548
1256.64,3103.19,148.28,0.0877035,0.0187229,0.114579,21.2092,2.43013
1256.64,3107.84,148.19,0.0877031,0.0186792,0.112139,21.1655,2.37349
1256.64,3112.49,148.47,0.0877038,0.0186394,0.111576,21.1216,2.35666
1256.64,3117.14,148.87,0.0877039,0.0186387,0.109754,21.125,2.31855
1256.64,3121.79,148.97,0.0877038,0.0186575,0.107611,21.1512,2.27611
1256.64,3124.12,149.05,0.0877049,0.0186709,0.107529,21.1663,2.27598