File: DMA/Sn_Pristine_AllData.xlsx - 10 Hz.csv
Angular frequency,Step time,Temperature,Oscillation strain,Oscillation stress,Tan(delta),Storage modulus,Loss modulus
rad/s,s,Celsius,%,MPa,,MPa,MPa
62.8318,879.848,40.05,0.0191369,0.341814,0.0100546,1786.07,17.9582
62.8318,882.848,40.08,0.0191373,0.341816,0.0101018,1786.03,18.0421
62.8318,885.848,40.12,0.0191376,0.341812,0.0100887,1785.99,18.0182
62.8318,888.848,40.16,0.0191387,0.341822,0.0100576,1785.93,17.9622
62.8318,891.848,40.21,0.0191395,0.34183,0.0100847,1785.9,18.0102
62.8318,894.848,40.26,0.019141,0.341843,0.0100565,1785.83,17.9592
62.8318,897.848,40.32,0.0191423,0.341851,0.0100577,1785.75,17.9606
62.8318,900.848,40.38,0.0191433,0.341857,0.0100681,1785.69,17.9785
62.8318,903.848,40.44,0.0191447,0.341866,0.0100618,1785.6,17.9663
62.8318,906.848,40.51,0.0191462,0.341879,0.0100256,1785.54,17.9011
62.8318,909.848,40.58,0.0191478,0.341892,0.0100593,1785.45,17.9604
62.8318,912.848,40.66,0.0191499,0.341904,0.0100373,1785.32,17.9197
62.8318,915.848,40.73,0.0191519,0.341922,0.010073,1785.23,17.9826
62.8318,918.848,40.81,0.0191534,0.341929,0.0100448,1785.12,17.9311
62.8318,921.848,40.89,0.0191564,0.341954,0.0100367,1784.97,17.9153
62.8318,924.848,40.97,0.0191583,0.341969,0.01008,1784.88,17.9916
62.8318,927.848,41.05,0.0191614,0.341986,0.0100347,1784.68,17.9086
62.8318,930.849,41.14,0.0191638,0.342009,0.0100483,1784.58,17.9319
62.8318,933.848,41.23,0.0191663,0.342026,0.0100418,1784.43,17.9188
62.8318,936.848,41.31,0.01917,0.342052,0.0100357,1784.21,17.9058
62.8318,939.848,41.4,0.0191726,0.342071,0.0100552,1784.08,17.9393
62.8318,942.848,41.5,0.019176,0.342096,0.0100286,1783.89,17.89
62.8318,945.848,41.59,0.0191793,0.342124,0.0100556,1783.73,17.9364
62.8318,948.848,41.68,0.0191826,0.342149,0.0100465,1783.55,17.9185
62.8318,951.848,41.78,0.0191868,0.342178,0.0100316,1783.32,17.8894
62.8318,954.848,41.88,0.0191896,0.342199,0.0100543,1783.16,17.9284
62.8318,957.848,41.98,0.0191935,0.342224,0.0100327,1782.93,17.8876
62.8318,960.848,42.08,0.0191972,0.34226,0.0100575,1782.78,17.9304
62.8318,963.848,42.18,0.0192007,0.342278,0.0100282,1782.54,17.8757
62.8318,966.848,42.28,0.0192052,0.34232,0.0100697,1782.34,17.9476
62.8318,969.848,42.39,0.0192085,0.342342,0.0100268,1782.16,17.8693
62.8318,972.848,42.5,0.019212,0.342368,0.0100666,1781.97,17.9383
62.8318,975.848,42.6,0.0192156,0.342393,0.0100265,1781.76,17.8648
62.8318,978.848,42.7,0.0192196,0.342429,0.0100601,1781.57,17.9227
62.8318,981.848,42.81,0.0192229,0.342447,0.0100503,1781.37,17.9033
62.8318,984.848,42.91,0.0192268,0.342479,0.0100205,1781.17,17.8482
62.8318,987.848,43.01,0.0192302,0.342509,0.0100452,1781.01,17.8906
62.8318,990.848,43.11,0.0192334,0.342528,0.0100559,1780.81,17.9077
62.8318,993.848,43.21,0.0192378,0.342561,0.0100266,1780.58,17.853
62.8318,996.848,43.32,0.0192407,0.342587,0.0100575,1780.45,17.9068
62.8318,999.848,43.44,0.0192442,0.342609,0.0100186,1780.23,17.8355
62.8318,1002.85,43.56,0.019247,0.342635,0.0100503,1780.1,17.8906
62.8318,1005.85,43.68,0.019251,0.342662,0.0100422,1779.88,17.8739
62.8318,1008.85,43.8,0.019254,0.342682,0.0100382,1779.71,17.8652
62.8318,1011.85,43.93,0.0192571,0.342709,0.010048,1779.56,17.8809
62.8318,1014.85,44.05,0.0192605,0.342733,0.0100418,1779.37,17.8681
62.8318,1017.85,44.18,0.0192635,0.342756,0.0100608,1779.21,17.9002
62.8318,1020.85,44.31,0.0192675,0.342783,0.0100395,1778.99,17.8602
62.8318,1023.85,44.43,0.019271,0.342814,0.0100537,1778.82,17.8837
62.8318,1026.85,44.56,0.0192742,0.342834,0.0100653,1778.63,17.9025
62.8318,1029.85,44.68,0.0192792,0.342874,0.0100571,1778.38,17.8854
62.8318,1032.85,44.81,0.0192827,0.342896,0.0100651,1778.17,17.8975
62.8318,1035.85,44.93,0.0192877,0.342935,0.0100475,1777.91,17.8635
62.8318,1038.85,45.06,0.0192919,0.34297,0.0100866,1777.7,17.9309
62.8318,1041.85,45.18,0.0192967,0.342999,0.0100966,1777.41,17.9458
62.8318,1044.85,45.31,0.0193022,0.343041,0.0100608,1777.13,17.8794
62.8318,1047.85,45.44,0.019308,0.343086,0.0100918,1776.82,17.9313
62.8318,1050.85,45.56,0.0193129,0.343125,0.0100894,1776.57,17.9245
62.8318,1053.85,45.69,0.0193185,0.343162,0.0100979,1776.25,17.9364
62.8318,1056.85,45.82,0.0193247,0.343214,0.0101105,1775.95,17.9557
62.8318,1059.85,45.95,0.0193305,0.343254,0.010098,1775.62,17.9302
62.8318,1062.85,46.07,0.0193365,0.3433,0.010107,1775.3,17.943
62.8318,1065.85,46.2,0.0193424,0.343345,0.0101209,1775,17.9645
62.8318,1068.85,46.33,0.0193479,0.343384,0.0101347,1774.7,17.986
62.8318,1071.85,46.45,0.0193533,0.34343,0.0101154,1774.44,17.9492
62.8318,1074.85,46.58,0.0193592,0.343471,0.0101228,1774.11,17.959
62.8318,1077.85,46.71,0.0193648,0.343514,0.0101421,1773.82,17.9902
62.8318,1080.85,46.84,0.0193698,0.343552,0.0101408,1773.56,17.9854
62.8318,1083.85,46.97,0.0193755,0.343594,0.0101292,1773.25,17.9616
62.8318,1086.85,47.1,0.0193804,0.343633,0.010143,1773.01,17.9836
62.8318,1089.85,47.24,0.0193857,0.34367,0.0101548,1772.71,18.0016
62.8318,1092.85,47.37,0.019391,0.343712,0.0101741,1772.44,18.033
62.8318,1095.85,47.51,0.0193965,0.343754,0.0101577,1772.16,18.0011
62.8318,1098.85,47.65,0.0194018,0.343793,0.0101752,1771.87,18.0291
62.8318,1101.85,47.79,0.0194077,0.343835,0.0101797,1771.56,18.0339
62.8318,1104.85,47.93,0.0194136,0.343879,0.0101805,1771.24,18.0321
62.8318,1107.85,48.07,0.0194196,0.343927,0.0101843,1770.94,18.0358
62.8318,1110.85,48.23,0.0194265,0.34397,0.0101842,1770.53,18.0313
62.8318,1113.85,48.4,0.0194339,0.344034,0.0102152,1770.19,18.0828
62.8318,1116.85,48.57,0.0194405,0.344077,0.0102,1769.8,18.052
62.8318,1119.85,48.74,0.0194471,0.344134,0.010234,1769.49,18.109
62.8318,1122.85,48.89,0.0194534,0.344181,0.010273,1769.16,18.1747
62.8318,1125.85,49.05,0.0194612,0.34423,0.010206,1768.71,18.0515
62.8318,1128.85,49.18,0.0194677,0.34429,0.0102654,1768.42,18.1536
62.8318,1131.85,49.31,0.0194751,0.344338,0.0102579,1768,18.136
62.8318,1134.85,49.43,0.0194825,0.344398,0.0102744,1767.64,18.1613
62.8318,1137.85,49.55,0.0194891,0.344445,0.0102575,1767.28,18.128
62.8318,1140.85,49.67,0.0194964,0.344503,0.0102752,1766.92,18.1554
62.8318,1143.85,49.77,0.0195027,0.344546,0.0103061,1766.56,18.2064
62.8318,1146.85,49.88,0.0195097,0.344602,0.0102844,1766.22,18.1645
62.8318,1149.85,49.98,0.019516,0.34465,0.0102978,1765.89,18.1848
62.8318,1152.85,50.07,0.0195234,0.344699,0.0102906,1765.48,18.1678
62.8318,1155.85,50.18,0.0195304,0.344754,0.0103108,1765.13,18.1999
62.8318,1158.85,50.29,0.0195369,0.344802,0.010302,1764.79,18.1807
62.8318,1161.85,50.42,0.0195447,0.344863,0.0103022,1764.39,18.1771
62.8318,1164.85,50.56,0.019552,0.344912,0.0103447,1763.98,18.2479
62.8318,1167.85,50.72,0.0195591,0.344967,0.0102999,1763.62,18.1651
62.8318,1170.85,50.89,0.0195667,0.345024,0.0103302,1763.23,18.2145
62.8318,1173.85,51.1,0.0195744,0.345084,0.010366,1762.84,18.2735
62.8318,1176.85,51.3,0.0195815,0.345133,0.0103598,1762.45,18.2587
62.8318,1179.85,51.51,0.0195897,0.345202,0.0103789,1762.07,18.2882
62.8318,1182.85,51.69,0.0195969,0.34525,0.0104051,1761.66,18.3303
62.8318,1185.85,51.84,0.0196053,0.345314,0.0103845,1761.24,18.2895
62.8318,1188.85,51.96,0.0196124,0.345367,0.0104088,1760.86,18.3286
62.8318,1191.85,52.08,0.019621,0.345429,0.0103957,1760.41,18.3008
62.8318,1194.85,52.21,0.0196284,0.34549,0.0104302,1760.06,18.3577
62.8318,1197.85,52.35,0.0196369,0.345551,0.0104538,1759.6,18.3946
62.8318,1200.85,52.48,0.0196455,0.345607,0.0104655,1759.12,18.4102
62.8318,1203.85,52.61,0.0196535,0.345676,0.0104701,1758.75,18.4142
62.8318,1206.85,52.75,0.0196631,0.345743,0.0104472,1758.24,18.3687
62.8318,1209.85,52.88,0.0196724,0.345811,0.0104846,1757.75,18.4293
62.8318,1212.85,53.04,0.0196825,0.345884,0.0104883,1757.22,18.4302
62.8318,1215.85,53.18,0.0196928,0.34596,0.0105142,1756.69,18.4702
62.8318,1218.85,53.36,0.0197034,0.346041,0.010494,1756.15,18.4291
62.8318,1221.85,53.51,0.019714,0.346121,0.0105328,1755.62,18.4916
62.8318,1224.85,53.7,0.019726,0.346205,0.0105207,1754.98,18.4636
62.8318,1227.85,53.85,0.019737,0.346286,0.0105513,1754.4,18.5113
62.8318,1230.85,54.02,0.0197489,0.346379,0.010544,1753.82,18.4922
62.8318,1233.85,54.17,0.01976,0.34646,0.0105445,1753.24,18.487
62.8318,1236.85,54.32,0.0197712,0.346543,0.0105619,1752.67,18.5116
62.8318,1239.85,54.47,0.0197825,0.346627,0.0105736,1752.09,18.5259
62.8318,1242.85,54.61,0.0197928,0.346706,0.0105974,1751.58,18.5623
62.8318,1245.85,54.76,0.0198029,0.346783,0.0105716,1751.07,18.5116
62.8318,1248.85,54.9,0.0198121,0.346854,0.0106296,1750.62,18.6084
62.8318,1251.85,55.05,0.019822,0.346923,0.0106088,1750.09,18.5663
62.8318,1254.85,55.18,0.019831,0.346996,0.0106622,1749.66,18.6554
62.8318,1257.85,55.34,0.0198404,0.347058,0.0106228,1749.15,18.5809
62.8318,1260.85,55.48,0.0198495,0.347137,0.0106955,1748.74,18.7037
62.8318,1263.85,55.65,0.0198593,0.347198,0.0106759,1748.18,18.6634
62.8318,1266.85,55.79,0.0198687,0.347275,0.0107009,1747.75,18.7025
62.8318,1269.85,55.96,0.0198784,0.347342,0.0106932,1747.23,18.6836
62.8318,1272.85,56.11,0.0198886,0.347422,0.0107127,1746.74,18.7122
62.8318,1275.85,56.27,0.0198984,0.347491,0.0107357,1746.23,18.747
62.8318,1278.85,56.42,0.0199084,0.347566,0.0107462,1745.72,18.76
62.8318,1281.85,56.57,0.0199185,0.347639,0.0107497,1745.21,18.7604
62.8318,1284.85,56.72,0.0199286,0.347719,0.0107703,1744.72,18.7912
62.8318,1287.85,56.87,0.0199384,0.347785,0.0107916,1744.19,18.8226
62.8318,1290.85,57.02,0.0199499,0.347872,0.0107965,1743.62,18.8251
62.8318,1293.85,57.17,0.0199597,0.347946,0.0108244,1743.14,18.8685
62.8318,1296.85,57.31,0.0199712,0.348029,0.0108111,1742.55,18.8389
62.8318,1299.85,57.47,0.0199812,0.348109,0.0108777,1742.08,18.9499
62.8318,1302.85,57.62,0.0199927,0.348183,0.0108413,1741.44,18.8795
62.8318,1305.85,57.77,0.0200032,0.348269,0.0108813,1740.96,18.9439
62.8318,1308.85,57.91,0.0200142,0.34835,0.0108941,1740.41,18.9601
62.8318,1311.85,58.07,0.0200253,0.34843,0.0109153,1739.84,18.9909
62.8318,1314.85,58.21,0.0200367,0.348514,0.0109177,1739.28,18.989
62.8318,1317.85,58.37,0.0200476,0.348595,0.0109518,1738.73,19.0423
62.8318,1320.85,58.51,0.0200593,0.34868,0.0109438,1738.14,19.0219
62.8318,1323.85,58.67,0.0200713,0.348768,0.0109729,1737.54,19.0658
62.8318,1326.85,58.8,0.0200839,0.348861,0.0110109,1736.91,19.1249
62.8318,1329.85,58.96,0.0200964,0.34895,0.0110032,1736.28,19.1045
62.8318,1332.85,59.09,0.0201082,0.349043,0.0110273,1735.72,19.1403
62.8318,1335.85,59.25,0.0201208,0.349132,0.0110326,1735.08,19.1423
62.8318,1338.85,59.39,0.0201324,0.349223,0.0110743,1734.52,19.2087
62.8318,1341.85,59.56,0.0201438,0.349299,0.0110647,1733.92,19.1853
62.8318,1344.85,59.69,0.0201545,0.34939,0.0110971,1733.45,19.2363
62.8318,1347.85,59.8,0.0201657,0.349463,0.0110874,1732.85,19.2128
62.8318,1350.85,59.88,0.0201782,0.349554,0.0111321,1732.23,19.2833
62.8318,1353.85,60.04,0.0201917,0.349651,0.0111464,1731.55,19.3005
62.8318,1356.85,60.25,0.0202059,0.349757,0.0111974,1730.85,19.3811
62.8318,1359.85,60.42,0.0202212,0.349867,0.011236,1730.09,19.4393
62.8318,1362.85,60.3,0.0202387,0.349986,0.0112271,1729.18,19.4137
62.8318,1365.85,60.57,0.0202575,0.350125,0.0111718,1728.26,19.3078
62.8318,1368.85,60.85,0.0202761,0.350264,0.0112558,1727.37,19.4429
62.8318,1371.85,61.1,0.0202913,0.350383,0.0113161,1726.65,19.539
62.8318,1374.85,60.75,0.0203081,0.350498,0.0112972,1725.8,19.4966
62.8318,1377.85,61.11,0.0203289,0.350635,0.0111312,1724.7,19.198
62.8318,1380.85,61.4,0.0203445,0.350781,0.0113424,1724.1,19.5554
62.8318,1383.85,61.66,0.0203582,0.350867,0.0113878,1723.36,19.6252
62.8318,1386.85,61.71,0.0203752,0.350999,0.0114277,1722.57,19.685
62.8318,1389.85,61.52,0.020393,0.351103,0.0112781,1721.58,19.4161
62.8318,1392.85,62.11,0.0204128,0.351276,0.0113126,1720.75,19.4662
62.8318,1395.85,62.32,0.0204235,0.351359,0.0115326,1720.25,19.839
62.8318,1398.85,62.6,0.0204397,0.351453,0.011319,1719.35,19.4613
62.8318,1401.85,61.95,0.0204511,0.351577,0.0115387,1719,19.8349
62.8318,1404.85,62.22,0.0204697,0.351655,0.0112084,1717.82,19.2541
62.8318,1407.85,62.52,0.0204819,0.351817,0.0116616,1717.58,20.0297
62.8318,1410.85,63.03,0.0204929,0.351853,0.0116512,1716.83,20.0032
62.8318,1413.85,63.1,0.0205111,0.351997,0.0116751,1716.01,20.0346
62.8318,1416.85,62.4,0.0205308,0.352099,0.0115076,1714.87,19.734
62.8318,1419.85,63.18,0.0205534,0.352305,0.011482,1713.98,19.68
62.8318,1422.85,63.48,0.0205597,0.352381,0.0118943,1713.82,20.3847
62.8318,1425.85,63.9,0.0205742,0.352454,0.0117211,1712.97,20.0779
62.8318,1428.85,63.21,0.0205882,0.352551,0.0117463,1712.28,20.1129
62.8318,1431.85,63.73,0.0206113,0.352692,0.0115111,1711.04,19.6959
62.8318,1434.85,64.07,0.0206259,0.352852,0.0119303,1710.6,20.4079
62.8318,1437.85,64.56,0.0206409,0.352927,0.0119094,1709.72,20.3617
62.8318,1440.85,64.21,0.0206599,0.353082,0.0119503,1708.9,20.4218
62.8318,1443.85,64.19,0.020682,0.353197,0.0116688,1707.63,19.926
62.8318,1446.85,64.97,0.0206973,0.353378,0.0119176,1707.24,20.3461
62.8318,1449.85,65.25,0.0207034,0.353417,0.0121463,1706.92,20.7327
62.8318,1452.85,64.52,0.0207221,0.353517,0.0119958,1705.87,20.4632
62.8318,1455.85,65.03,0.0207491,0.353671,0.0117443,1704.4,20.0169
62.8318,1458.85,65.49,0.0207735,0.353918,0.0121708,1703.58,20.7339
62.8318,1461.85,65.93,0.0207918,0.354016,0.0122039,1702.54,20.7777
62.8318,1464.85,65.47,0.0208177,0.354215,0.0122242,1701.39,20.798
62.8318,1467.85,65.8,0.020846,0.354373,0.0119251,1699.84,20.2707
62.8318,1470.85,66.45,0.0208673,0.3546,0.0122327,1699.18,20.7856
62.8318,1473.85,66.31,0.0208791,0.354677,0.0124196,1698.58,21.0957
62.8318,1476.85,65.73,0.0209069,0.354811,0.0120667,1696.98,20.4768
62.8318,1479.85,66.43,0.0209353,0.355075,0.0122622,1695.93,20.7958
62.8318,1482.85,67,0.0209504,0.355194,0.0125673,1695.27,21.3049
62.8318,1485.85,67.39,0.0209722,0.355328,0.0124383,1694.15,21.0724
62.8318,1488.85,67.16,0.0209893,0.355453,0.0124026,1693.36,21.0022
62.8318,1491.85,67.5,0.0210078,0.355596,0.012273,1692.56,20.7728
62.8318,1494.85,67.81,0.021015,0.355679,0.0126466,1692.36,21.4026
62.8318,1497.85,67.85,0.0210352,0.355743,0.0123909,1691.05,20.9537
62.8318,1500.85,67.36,0.0210672,0.355983,0.0122391,1689.62,20.6794
62.8318,1503.85,67.38,0.0210841,0.356169,0.0127678,1689.14,21.5666
62.8318,1506.85,67.97,0.0211026,0.356283,0.012747,1688.2,21.5196
62.8318,1509.85,68.48,0.021115,0.35639,0.0129693,1687.71,21.8883
62.8318,1512.85,68.89,0.0211296,0.356481,0.0129102,1686.98,21.7793
62.8318,1515.85,68.22,0.0211443,0.35658,0.0129212,1686.27,21.7885
62.8318,1518.85,68.82,0.02117,0.356734,0.0127222,1684.96,21.4363
62.8318,1521.85,69.16,0.0211911,0.35693,0.0130697,1684.2,22.012
62.8318,1524.85,68.08,0.0212114,0.357042,0.01304,1683.11,21.9478
62.8318,1527.85,69.17,0.0212408,0.357247,0.0127192,1681.75,21.3906
62.8318,1530.85,69.56,0.0212486,0.357389,0.013328,1681.79,22.415
62.8318,1533.85,69.62,0.0212628,0.35742,0.0131873,1680.82,22.1655
62.8318,1536.85,69.26,0.0212885,0.357575,0.0130406,1679.52,21.902
62.8318,1539.85,70.06,0.0213201,0.35782,0.0131729,1678.17,22.1064
62.8318,1542.85,70.24,0.021345,0.358013,0.0134375,1677.12,22.5363
62.8318,1545.85,69.44,0.0213745,0.358182,0.0132381,1675.6,22.1817
62.8318,1548.85,70.27,0.0214073,0.358454,0.0132437,1674.3,22.1739
62.8318,1551.85,70.04,0.0214247,0.358587,0.0134829,1673.56,22.5644
62.8318,1554.85,69.9,0.0214525,0.358734,0.0132735,1672.07,22.1943
62.8318,1557.85,70.92,0.0214863,0.35903,0.013509,1670.82,22.5712
62.8318,1560.85,70.5,0.0215024,0.359158,0.0138674,1670.16,23.1608
62.8318,1563.85,70.36,0.0215358,0.359325,0.0133732,1668.35,22.3111
62.8318,1566.85,71.38,0.0215542,0.359568,0.0137645,1668.05,22.9598
62.8318,1569.85,71.38,0.0215602,0.359577,0.0139618,1667.62,23.283
62.8318,1572.85,70.75,0.0215826,0.359685,0.0136703,1666.39,22.7801
62.8318,1575.85,71.67,0.0216089,0.359899,0.0137973,1665.35,22.9773
62.8318,1578.85,71.57,0.0216291,0.360043,0.0140812,1664.46,23.4375
62.8318,1581.85,71.14,0.0216582,0.360199,0.0138022,1662.95,22.9524
62.8318,1584.85,72.26,0.0216826,0.360456,0.0139307,1662.26,23.1565
62.8318,1587.85,71.56,0.0216869,0.360495,0.0143706,1662.1,23.8853
62.8318,1590.85,71.96,0.0217168,0.360602,0.0137965,1660.32,22.9066
62.8318,1593.85,72.73,0.0217418,0.36089,0.0144426,1659.71,23.9706
62.8318,1596.85,71.78,0.021762,0.36096,0.0144079,1658.5,23.8954
62.8318,1599.85,72.77,0.0217982,0.361227,0.0141089,1656.97,23.3781
62.8318,1602.85,73.32,0.0218079,0.361369,0.0147112,1656.88,24.3747
62.8318,1605.85,72.3,0.0218283,0.36142,0.0144387,1655.57,23.9042
62.8318,1608.85,73.26,0.021865,0.361668,0.0143731,1653.92,23.772
62.8318,1611.85,73.68,0.0218982,0.361943,0.0147857,1652.66,24.4358
62.8318,1614.85,72.78,0.0219299,0.362132,0.0147631,1651.14,24.3759
62.8318,1617.85,73.67,0.021969,0.362424,0.0146229,1649.53,24.1209
62.8318,1620.85,73.66,0.0219916,0.362608,0.0149398,1648.67,24.6308
62.8318,1623.85,73.32,0.0220245,0.362771,0.0147257,1646.95,24.2525
62.8318,1626.85,74.44,0.0220694,0.363113,0.0147861,1645.14,24.3253
62.8318,1629.85,74.06,0.0220893,0.363338,0.0154599,1644.66,25.4263
62.8318,1632.85,74.04,0.0221221,0.363472,0.0148725,1642.84,24.4331
62.8318,1635.85,74.94,0.022139,0.36372,0.0154044,1642.7,25.3048
62.8318,1638.85,74.14,0.02215,0.363728,0.0155253,1641.91,25.4912
62.8318,1641.85,74.81,0.0221895,0.363933,0.0150864,1639.93,24.7407
62.8318,1644.85,75.51,0.0222171,0.364229,0.0156814,1639.21,25.7052
62.8318,1647.85,74.62,0.022237,0.36431,0.0156634,1638.1,25.6583
62.8318,1650.85,75.56,0.0222675,0.364533,0.0154238,1636.87,25.2467
62.8318,1653.85,76.11,0.0222799,0.36469,0.0160599,1636.65,26.2845
62.8318,1656.85,75.13,0.0223041,0.364783,0.0159603,1635.29,26.0997
62.8318,1659.85,75.97,0.0223462,0.365053,0.015706,1633.43,25.6547
62.8318,1662.85,76.48,0.0223702,0.365293,0.0161928,1632.73,26.4385
62.8318,1665.85,76.41,0.0223908,0.365401,0.0161919,1631.71,26.4205
62.8318,1668.85,76.33,0.0224292,0.365593,0.0158297,1629.79,25.799
62.8318,1671.85,76.04,0.0224698,0.365964,0.0164085,1628.47,26.7208
62.8318,1674.85,76.65,0.022509,0.366167,0.0163803,1626.54,26.6432
62.8318,1677.85,77.38,0.0225503,0.366523,0.0166068,1625.13,26.9882
62.8318,1680.85,77.23,0.0225798,0.36669,0.0166528,1623.75,27.04
62.8318,1683.85,76.93,0.0226299,0.366995,0.016401,1621.51,26.5944
62.8318,1686.85,77.65,0.0226715,0.367347,0.0168918,1620.07,27.366
62.8318,1689.85,77.78,0.0227031,0.367558,0.0170099,1618.75,27.5347
62.8318,1692.85,77.55,0.0227338,0.367777,0.0169348,1617.52,27.3925
62.8318,1695.85,77.85,0.0227608,0.367963,0.0170874,1616.41,27.6203
62.8318,1698.85,77.97,0.0227935,0.368206,0.0174111,1615.15,28.1217
62.8318,1701.85,78.03,0.0228264,0.368403,0.0174254,1613.69,28.1191
62.8318,1704.85,78.21,0.0228564,0.368657,0.0175861,1612.68,28.3607
62.8318,1707.85,78.19,0.022881,0.368799,0.0177076,1611.56,28.5369
62.8318,1710.85,78.59,0.0229124,0.369038,0.0179727,1610.39,28.943
62.8318,1713.85,78.83,0.0229408,0.369223,0.0181973,1609.2,29.2831
62.8318,1716.85,78.64,0.0229833,0.369448,0.0179066,1607.2,28.7795
62.8318,1719.85,78.26,0.0230392,0.369863,0.0178835,1605.11,28.705
62.8318,1722.85,78.83,0.023073,0.370132,0.0186409,1603.9,29.8982
62.8318,1725.85,78.58,0.0231206,0.370434,0.0186988,1601.9,29.9538
62.8318,1728.85,78.37,0.0231651,0.370719,0.0187303,1600.05,29.9696
62.8318,1731.85,79.54,0.0232116,0.371089,0.0189797,1598.43,30.3377
62.8318,1734.85,78.82,0.0232409,0.371288,0.0194007,1597.26,30.988
62.8318,1737.85,79.28,0.0232976,0.371591,0.0189563,1594.69,30.2295
62.8318,1740.85,80.01,0.0233363,0.371993,0.0195861,1593.75,31.2153
62.8318,1743.85,79.07,0.0233584,0.372086,0.0196396,1592.63,31.2787
62.8318,1746.85,79.94,0.0234016,0.372345,0.0194163,1590.81,30.8877
62.8318,1749.85,80.59,0.0234299,0.372643,0.0201719,1590.13,32.076
62.8318,1752.85,80,0.023458,0.372778,0.0201957,1588.81,32.087
62.8318,1755.85,80.35,0.0234985,0.373029,0.0199988,1587.14,31.7409
62.8318,1758.85,80.93,0.0235275,0.373284,0.0205068,1586.25,32.5289
62.8318,1761.85,80.95,0.0235586,0.373438,0.0205742,1584.81,32.6061
62.8318,1764.85,81.04,0.0236154,0.373741,0.0202746,1582.29,32.0802
62.8318,1767.85,80.37,0.0236822,0.374264,0.0205468,1580.02,32.4644
62.8318,1770.85,80.79,0.0237221,0.374569,0.0213539,1578.63,33.7098
62.8318,1773.85,80.64,0.0237792,0.374913,0.0214003,1576.28,33.7329
62.8318,1776.85,80.59,0.0238355,0.375278,0.0215721,1574.08,33.9562
62.8318,1779.85,81.27,0.0238983,0.37573,0.0217966,1571.83,34.2606
62.8318,1782.85,80.88,0.0239488,0.376068,0.0221665,1569.91,34.7996
62.8318,1785.85,81.56,0.0240115,0.376476,0.0221661,1567.51,34.7456
62.8318,1788.85,81.21,0.0240571,0.376838,0.0226755,1566.03,35.5105
62.8318,1791.85,81.76,0.0241098,0.377132,0.0225954,1563.83,35.3354
62.8318,1794.85,81.61,0.0241537,0.377498,0.023197,1562.48,36.245
62.8318,1797.85,82.02,0.0242086,0.377784,0.0231274,1560.12,36.0816
62.8318,1800.85,81.95,0.0242609,0.378214,0.0237448,1558.51,37.0064
62.8318,1803.85,82.15,0.0243167,0.378502,0.0237115,1556.12,36.8978
62.8318,1806.85,82.43,0.0243796,0.378987,0.0243305,1554.07,37.8112
62.8318,1809.85,82.37,0.0244502,0.379363,0.0244743,1551.11,37.9622
62.8318,1812.85,82.74,0.0245386,0.379989,0.02485,1548.06,38.4693
62.8318,1815.85,82.53,0.0246183,0.380479,0.0252467,1545.02,39.0067
62.8318,1818.85,83.14,0.0247223,0.381176,0.025523,1541.33,39.3393
62.8318,1821.85,82.93,0.0247975,0.38173,0.0262727,1538.85,40.4298
62.8318,1824.85,83.37,0.0248891,0.382284,0.0263654,1535.41,40.4818
62.8318,1827.85,83.31,0.0249649,0.38287,0.0271579,1533.07,41.635
62.8318,1830.85,83.5,0.0250362,0.383293,0.0274218,1530.38,41.966
62.8318,1833.85,83.71,0.0251186,0.383861,0.0280296,1527.59,42.8178
62.8318,1836.85,83.77,0.0252052,0.384374,0.0284037,1524.36,43.2976
62.8318,1839.85,84.15,0.025302,0.385055,0.0291206,1521.19,44.298
62.8318,1842.85,83.94,0.0254067,0.385667,0.0297483,1517.3,45.1373
62.8318,1845.85,84.49,0.0255314,0.386506,0.03021,1513.16,45.7124
62.8318,1848.85,84.26,0.0256495,0.387247,0.0310733,1509.03,46.8907
62.8318,1851.85,84.86,0.0257902,0.388175,0.0315323,1504.38,47.4365
62.8318,1854.85,84.6,0.0258991,0.388928,0.0325485,1500.91,48.8525
62.8318,1857.85,85.13,0.0260284,0.389728,0.0330105,1496.5,49.4002
62.8318,1860.85,84.92,0.0261311,0.390481,0.0340537,1493.45,50.8574
62.8318,1863.85,85.43,0.0262579,0.391198,0.0346119,1488.93,51.5348
62.8318,1866.85,85.32,0.0263764,0.392067,0.0357878,1485.48,53.162
62.8318,1869.85,85.71,0.0265171,0.392824,0.0364513,1480.42,53.9631
62.8318,1872.85,85.66,0.0266774,0.393925,0.0375485,1475.59,55.406
62.8318,1875.85,86.01,0.0268395,0.394881,0.0383554,1470.18,56.3894
62.8318,1878.85,86.04,0.027015,0.39607,0.0395346,1464.97,57.917
62.8318,1881.85,86.27,0.0271765,0.397062,0.0404808,1459.85,59.0958
62.8318,1884.85,86.42,0.0273448,0.398182,0.0416659,1454.89,60.6194
62.8318,1887.85,86.57,0.0275001,0.399149,0.0427073,1450.12,61.9309
62.8318,1890.85,86.81,0.027661,0.400198,0.0439808,1445.4,63.5698
62.8318,1893.85,86.85,0.027831,0.401207,0.0451712,1440.12,65.0518
62.8318,1896.85,87.15,0.0280275,0.40243,0.0464942,1434.29,66.6862
62.8318,1899.85,87.15,0.0282363,0.403695,0.0477557,1428.07,68.1986
62.8318,1914.85,88.33,0.0293318,0.410578,0.0552601,1397.64,77.2337
62.8318,1916.35,87.93,0.0294355,0.411158,0.0560229,1394.62,78.1308
62.8318,1968.85,91.43,0.0353637,0.445493,0.0947633,1254.13,118.845
62.8318,2019.85,93.67,0.0465555,0.502826,0.156015,1067.15,166.491
62.8318,2070.35,96.62,0.0666733,0.589737,0.236993,860.678,203.975
62.8318,2108.35,98.07,0.0909821,0.655511,0.317855,686.631,218.249
62.8318,2110.35,97.69,0.0910171,0.647357,0.322863,676.845,218.528
62.8318,2113.35,99.5,0.0909076,0.635005,0.329516,663.427,218.61
62.8318,2116.35,100.37,0.090686,0.625151,0.334076,653.836,218.431
62.8318,2119.35,99.96,0.0909112,0.616288,0.340993,641.623,218.789
62.8318,2122.35,100.26,0.0910874,0.605202,0.349222,627.269,219.056
62.8318,2125.35,100.69,0.0909961,0.592628,0.356945,613.364,218.937
62.8318,2128.35,99.96,0.0908139,0.582371,0.362535,602.883,218.566
62.8318,2131.35,99.45,0.0908824,0.572918,0.368763,591.461,218.109
62.8318,2134.35,100.01,0.0911419,0.562161,0.376904,577.163,217.535
62.8318,2137.35,99.78,0.0910286,0.550252,0.384464,564.219,216.922
62.8318,2140.35,99.99,0.0910024,0.539347,0.39167,551.854,216.145
62.8318,2143.35,99.85,0.0909398,0.528999,0.39866,540.347,215.415
62.8318,2146.35,100.11,0.0910091,0.519053,0.406078,528.424,214.582
62.8318,2149.35,100.06,0.0909811,0.508849,0.413292,516.886,213.625
62.8318,2152.35,100.14,0.0910389,0.498834,0.421007,505.004,212.61
62.8318,2155.35,100.25,0.0910725,0.488454,0.428986,492.896,211.445
62.8318,2158.35,100.37,0.0910318,0.478096,0.436621,481.318,210.154
62.8318,2161.35,100.39,0.0910024,0.468354,0.444042,470.374,208.866
62.8318,2164.35,100.61,0.091034,0.458754,0.451812,459.239,207.49
62.8318,2167.35,100.68,0.0910718,0.449044,0.45989,447.964,206.014
62.8318,2170.35,100.92,0.0910773,0.439135,0.468012,436.696,204.379
62.8318,2173.35,100.85,0.0911171,0.429329,0.476485,425.365,202.68
62.8318,2176.35,101.61,0.0911546,0.41921,0.485647,413.685,200.905
62.8318,2179.35,101.18,0.0910277,0.409586,0.493491,403.499,199.123
62.8318,2182.35,102,0.0911642,0.400244,0.502561,392.284,197.147
62.8318,2185.35,103.18,0.0908178,0.391378,0.508157,384.191,195.229
62.8318,2188.35,102.07,0.0910791,0.383715,0.516647,374.296,193.379
62.8318,2191.35,103.52,0.0911874,0.374491,0.526771,363.352,191.403
62.8318,2194.35,103.62,0.0909505,0.365683,0.534189,354.639,189.445
62.8318,2197.35,103.74,0.0910664,0.357539,0.542748,345.066,187.284
62.8318,2200.35,103.09,0.090939,0.349477,0.550725,336.625,185.388
62.8318,2203.35,102.71,0.0910019,0.341941,0.558247,328.091,183.156
62.8318,2206.35,103.07,0.0912333,0.333427,0.568359,317.733,180.586
62.8318,2209.35,102.96,0.0912331,0.323849,0.578188,307.301,177.677
62.8318,2212.35,103.17,0.0910674,0.315007,0.587156,298.288,175.142
62.8318,2215.35,103.15,0.091074,0.30707,0.596562,289.555,172.738
62.8318,2218.35,103.35,0.0910565,0.299181,0.605833,281.017,170.249
62.8318,2221.35,103.39,0.0910571,0.291478,0.615122,272.651,167.714
62.8318,2224.35,103.57,0.0910523,0.283819,0.624465,264.392,165.104
62.8318,2227.35,103.65,0.091036,0.276308,0.633669,256.376,162.458
62.8318,2230.35,103.76,0.0910413,0.268907,0.643146,248.425,159.774
62.8318,2233.35,103.92,0.0910162,0.261598,0.652402,240.72,157.046
62.8318,2236.35,103.98,0.0910005,0.254514,0.661658,233.249,154.331
62.8318,2239.35,104.13,0.0910159,0.247483,0.671381,225.752,151.565
62.8318,2242.35,104.31,0.0909633,0.240555,0.680606,218.621,148.795
62.8318,2245.35,104.34,0.0909594,0.233929,0.68987,211.693,146.04
62.8318,2248.35,104.58,0.0909622,0.2273,0.699535,204.758,143.235
62.8318,2251.35,104.63,0.0909575,0.220731,0.709331,197.936,140.402
62.8318,2254.35,104.85,0.0909352,0.214207,0.719061,191.25,137.521
62.8318,2257.35,104.89,0.0908675,0.208041,0.728016,185.095,134.752
62.8318,2260.35,105.13,0.090892,0.201974,0.737632,178.826,131.908
62.8318,2263.35,105.23,0.0908716,0.195936,0.7473,172.719,129.073
62.8318,2266.35,105.35,0.0908807,0.189902,0.757357,166.576,126.157
62.8318,2269.35,105.56,0.0907944,0.184078,0.766422,160.916,123.33
62.8318,2272.35,105.59,0.0907824,0.178616,0.775381,155.487,120.562
62.8318,2275.35,105.88,0.090779,0.173111,0.784802,150.013,117.731
62.8318,2278.35,105.93,0.0907616,0.167682,0.794213,144.673,114.901
62.8318,2281.35,106.19,0.0907304,0.16235,0.803461,139.49,112.075
62.8318,2284.35,106.31,0.0906879,0.157246,0.812158,134.595,109.313
62.8318,2287.35,106.43,0.0906931,0.152161,0.821329,129.651,106.486
62.8318,2290.35,106.67,0.0906235,0.147269,0.829569,125.072,103.756
62.8318,2293.35,106.7,0.0906119,0.142616,0.837777,120.648,101.076
62.8318,2296.35,107.02,0.0905949,0.137942,0.846246,116.23,98.3593
62.8318,2299.35,107.04,0.090565,0.13342,0.854195,112.016,95.6836
62.8318,2302.35,107.28,0.0905566,0.128882,0.862415,107.777,92.9489
62.8318,2305.35,107.39,0.0904691,0.124739,0.868966,104.076,90.4383
62.8318,2308.35,107.59,0.0904873,0.120629,0.876297,100.262,87.8595
62.8318,2311.35,107.77,0.0904515,0.116581,0.883083,96.6098,85.3145
62.8318,2314.35,107.81,0.0904436,0.112573,0.889942,92.9795,82.7463
62.8318,2317.35,108.15,0.0903883,0.108734,0.895676,89.6083,80.26
62.8318,2320.35,108.11,0.0903595,0.105213,0.90091,86.5088,77.9366
62.8318,2323.35,108.49,0.0903544,0.101599,0.906311,83.3175,75.5116
62.8318,2326.35,108.47,0.0903264,0.0981368,0.91108,80.3126,73.1712
62.8318,2329.35,108.71,0.0903178,0.0946319,0.915676,77.2747,70.7585
62.8318,2332.35,108.85,0.0902517,0.0915285,0.918662,74.684,68.6094
62.8318,2335.35,109.01,0.0902587,0.0884468,0.921899,72.0476,66.4206
62.8318,2338.35,109.23,0.0902345,0.0854126,0.924446,69.5063,64.2548
62.8318,2341.35,109.26,0.0902214,0.0824312,0.926584,67.0183,62.0981
62.8318,2344.35,109.62,0.0901937,0.0795928,0.927934,64.6871,60.0254
62.8318,2347.35,109.57,0.0901689,0.0770006,0.928407,62.5827,58.1022
62.8318,2350.35,109.9,0.0901661,0.0743247,0.92877,60.3989,56.0967
62.8318,2353.35,110.02,0.0901382,0.0718521,0.927989,58.4303,54.2227
62.8318,2356.35,110.06,0.0901388,0.0693215,0.927061,56.3982,52.2845
62.8318,2359.35,110.42,0.090111,0.0669917,0.925118,54.5723,50.4858
62.8318,2362.35,110.38,0.090097,0.0648594,0.922449,52.9139,48.8104
62.8318,2365.35,110.76,0.0900913,0.0626654,0.919349,51.2062,47.0764
62.8318,2368.35,110.7,0.0900809,0.0605708,0.915639,49.592,45.4083
62.8318,2371.35,111,0.0900729,0.0584699,0.911075,47.9851,43.718
62.8318,2374.35,111.07,0.0900519,0.0566718,0.905892,46.6403,42.2511
62.8318,2377.35,111.3,0.0900508,0.054826,0.900282,45.248,40.7359
62.8318,2380.35,111.48,0.0900415,0.0530609,0.893972,43.9333,39.2751
62.8318,2383.35,111.49,0.0900372,0.0513013,0.886806,42.6299,37.8044
62.8318,2386.35,111.85,0.0900284,0.0496311,0.879172,41.4025,36.3999
62.8318,2389.35,111.83,0.0900185,0.0481889,0.871294,40.3612,35.1664
62.8318,2392.35,112.15,0.0900176,0.0466953,0.862894,39.2735,33.8889
62.8318,2395.35,112.19,0.0900116,0.0452765,0.853936,38.2517,32.6645
62.8318,2398.35,112.38,0.0900076,0.0438629,0.843999,37.2412,31.4315
62.8318,2401.35,112.61,0.090004,0.0426113,0.834456,36.3504,30.3329
62.8318,2404.35,112.63,0.0900003,0.0413898,0.824405,35.4847,29.2538
62.8318,2407.35,112.96,0.0899975,0.0401856,0.813677,34.6351,28.1818
62.8318,2410.35,112.98,0.0899957,0.0390651,0.803011,33.8459,27.1787
62.8318,2413.35,113.12,0.089992,0.0379055,0.790948,33.0363,26.13
62.8318,2416.35,113.37,0.08999,0.0368353,0.778961,32.2917,25.154
62.8318,2419.35,113.4,0.0899885,0.0359241,0.767935,31.6619,24.3143
62.8318,2422.35,113.66,0.089989,0.0349908,0.756537,31.0092,23.4596
62.8318,2425.35,113.76,0.089987,0.0341024,0.74454,30.3971,22.6319
62.8318,2428.35,113.99,0.0899858,0.0332332,0.732331,29.796,21.8206
62.8318,2431.35,114.08,0.0899842,0.0323942,0.719839,29.2174,21.0318
62.8318,2434.35,114.3,0.0899843,0.0315868,0.707269,28.659,20.2696
62.8318,2437.35,114.44,0.089985,0.0308773,0.695473,28.1708,19.592
62.8318,2440.35,114.58,0.0899847,0.0301692,0.683332,27.6814,18.9156
62.8318,2443.35,114.75,0.0899824,0.0294766,0.670715,27.2056,18.2472
62.8318,2446.35,114.9,0.0899836,0.0288032,0.658144,26.7381,17.5975
62.8318,2449.35,115.11,0.0899849,0.0281918,0.646153,26.3141,17.003
62.8318,2452.35,115.19,0.0899845,0.0276272,0.634291,25.9265,16.445
62.8318,2455.35,115.37,0.0899825,0.0270566,0.622066,25.5319,15.8825
62.8318,2458.35,115.57,0.0899854,0.0265051,0.610124,25.1443,15.3412
62.8318,2461.35,115.72,0.0899847,0.0259943,0.598359,24.7888,14.8326
62.8318,2464.35,115.81,0.0899857,0.0254991,0.586726,24.4406,14.34
62.8318,2467.35,116.04,0.0899847,0.02502,0.57488,24.1053,13.8577
62.8318,2470.35,116.2,0.0899858,0.0245859,0.563944,23.7985,13.421
62.8318,2473.35,116.25,0.089986,0.0241554,0.552581,23.4951,12.9829
62.8318,2476.35,116.52,0.0899869,0.0237334,0.541476,23.1925,12.5582
62.8318,2479.35,116.63,0.089988,0.0233574,0.531093,22.9238,12.1747
62.8318,2482.35,116.71,0.089987,0.0229773,0.520234,22.652,11.7844
62.8318,2485.35,116.99,0.0899877,0.022612,0.509579,22.3886,11.4088
62.8318,2488.35,117.08,0.0899885,0.0222792,0.499547,22.1481,11.064
62.8318,2491.35,117.16,0.0899894,0.0219399,0.489273,21.8998,10.715
62.8318,2494.35,117.44,0.0899879,0.021622,0.478978,21.6701,10.3795
62.8318,2497.35,117.51,0.089991,0.0213337,0.47014,21.4538,10.0863
62.8318,2500.35,117.66,0.0899902,0.0210422,0.46061,21.2381,9.7825
62.8318,2503.35,117.84,0.0899905,0.0207504,0.450718,21.0218,9.47491
62.8318,2506.35,118.01,0.0899911,0.0204873,0.441622,20.8255,9.197
62.8318,2509.35,118.14,0.0899911,0.0202356,0.432818,20.6363,8.93175
62.8318,2512.35,118.24,0.0899915,0.0199863,0.424033,20.4469,8.67015
62.8318,2515.35,118.4,0.0899923,0.0197411,0.415147,20.26,8.41086
62.8318,2518.35,118.52,0.0899911,0.0195042,0.40593,20.082,8.15189
62.8318,2521.35,118.73,0.0899936,0.0192978,0.398276,19.9216,7.93429
62.8318,2524.35,118.82,0.089994,0.0190949,0.390757,19.7627,7.72244
62.8318,2527.35,119.05,0.0899931,0.0188928,0.382978,19.605,7.50829
62.8318,2530.35,119.09,0.0899937,0.018694,0.375042,19.4497,7.29445
62.8318,2533.35,119.16,0.0899932,0.0184954,0.366825,19.2949,7.07783
62.8318,2536.35,119.23,0.0899912,0.0182807,0.357608,19.1276,6.84017
62.8318,2539.35,119.73,0.0899937,0.0180986,0.34974,18.9835,6.63928
62.8318,2542.35,119.59,0.0899973,0.0179546,0.343979,18.8653,6.48927
62.8318,2545.35,119.95,0.0899957,0.0177903,0.336938,18.7332,6.31193
62.8318,2548.35,120.05,0.0899957,0.0176399,0.330578,18.6103,6.15216
62.8318,2551.35,120.3,0.0899952,0.0174803,0.323394,18.4812,5.9767
62.8318,2554.35,121.68,0.0899977,0.01736,0.318399,18.3802,5.85224
62.8318,2557.35,120.81,0.0899966,0.0172476,0.312927,18.2902,5.72349
62.8318,2560.35,122.26,0.0899954,0.0171034,0.306314,18.1713,5.56614
62.8318,2563.35,122.37,0.0899983,0.0169888,0.301272,18.0743,5.4453
62.8318,2566.35,122.77,0.0899988,0.0169246,0.298428,18.02,5.37769
62.8318,2569.35,123.36,0.0900007,0.0168507,0.295444,17.9556,5.30486
62.8318,2572.35,123.46,0.0900033,0.0168155,0.29439,17.9227,5.27625
62.8318,2575.35,122.7,0.0900011,0.0167576,0.292338,17.8714,5.22449
62.8318,2578.35,123.19,0.0899968,0.0166241,0.286234,17.7587,5.08315
62.8318,2581.35,123.32,0.0899981,0.0165571,0.283133,17.7014,5.01184
62.8318,2584.35,122.69,0.0900013,0.0164829,0.280169,17.635,4.94079
62.8318,2587.35,122.4,0.0899986,0.0163827,0.275321,17.5502,4.83195
62.8318,2590.35,123.68,0.0899981,0.0162803,0.270342,17.4627,4.72091
62.8318,2593.35,124.2,0.0899971,0.0162032,0.266354,17.3976,4.63392
62.8318,2596.35,124.06,0.0899973,0.0161063,0.261333,17.3149,4.52497
62.8318,2599.35,124.46,0.0900015,0.0160497,0.258782,17.264,4.46761
62.8318,2602.35,124.91,0.0900002,0.0160091,0.256794,17.2289,4.42427
62.8318,2605.35,124.75,0.090003,0.0159785,0.25604,17.1985,4.4035
62.8318,2608.35,124.46,0.0899997,0.0159152,0.253538,17.1413,4.34596
62.8318,2611.35,124.77,0.0899982,0.0158275,0.248937,17.0656,4.24826
62.8318,2614.35,125.01,0.0899987,0.0157609,0.244908,17.0097,4.16581
62.8318,2617.35,125.25,0.0900012,0.0157215,0.243216,16.9733,4.12818
62.8318,2620.35,124.81,0.0899998,0.0156775,0.241087,16.9343,4.08263
62.8318,2623.35,124.08,0.090001,0.0156098,0.238156,16.8721,4.01819
62.8318,2626.35,125.11,0.0899987,0.0155312,0.234093,16.8029,3.93345
62.8318,2629.35,124.99,0.0900001,0.0154737,0.231052,16.7517,3.87052
62.8318,2632.35,125.16,0.0899992,0.0154296,0.22842,16.7136,3.81774
62.8318,2635.35,125.11,0.090002,0.0153957,0.227424,16.6801,3.79345
62.8318,2638.35,125.3,0.0900014,0.0153569,0.225705,16.6443,3.75668
62.8318,2641.35,125.77,0.0899991,0.0153026,0.222659,16.5966,3.69539
62.8318,2644.35,125.72,0.0900002,0.0152573,0.220138,16.5561,3.64464
62.8318,2647.35,125.91,0.0900002,0.0152134,0.217873,16.5163,3.59845
62.8318,2650.35,125.97,0.0899986,0.0151678,0.215275,16.4759,3.54684
62.8318,2653.35,126.08,0.0899994,0.0151191,0.212325,16.4328,3.48908
62.8318,2656.35,126.2,0.0900007,0.0150771,0.209818,16.3952,3.44
62.8318,2659.35,126.31,0.0899999,0.0150402,0.207692,16.3622,3.39831
62.8318,2662.35,126.4,0.0900002,0.0150022,0.205845,16.3268,3.36079
62.8318,2665.35,126.51,0.0900011,0.0149655,0.204058,16.2924,3.32459
62.8318,2668.35,126.6,0.0900011,0.0149262,0.201973,16.2562,3.28332
62.8318,2671.35,126.7,0.0899993,0.0148816,0.19948,16.2158,3.23473
62.8318,2674.35,126.79,0.0900009,0.014844,0.197773,16.1798,3.19993
62.8318,2677.35,126.89,0.0900002,0.0148097,0.196002,16.148,3.16503
62.8318,2680.35,126.99,0.090001,0.0147714,0.19397,16.1122,3.12528
62.8318,2683.35,127.08,0.09,0.0147386,0.19185,16.083,3.08551
62.8318,2686.35,127.18,0.0900009,0.0147009,0.189897,16.0474,3.04735
62.8318,2689.35,127.27,0.0899997,0.0146711,0.187918,16.0208,3.01061
62.8318,2692.35,127.37,0.0900003,0.0146391,0.186177,15.9909,2.97713
62.8318,2695.35,127.47,0.0900003,0.0146031,0.184058,15.9576,2.93713
62.8318,2698.35,127.57,0.0900004,0.0145678,0.181519,15.9261,2.89089
62.8318,2701.35,127.68,0.0899993,0.0145383,0.179965,15.8984,2.86116
62.8318,2704.35,127.78,0.0900007,0.0145043,0.177996,15.8664,2.82415
62.8318,2707.35,127.88,0.0900005,0.014472,0.175956,15.8367,2.78656
62.8318,2710.35,127.99,0.0900006,0.0144377,0.173734,15.805,2.74586
62.8318,2713.35,128.1,0.0899996,0.0144096,0.171758,15.7797,2.71028
62.8318,2716.35,128.21,0.0899992,0.0143784,0.169598,15.7512,2.67137
62.8318,2719.35,128.32,0.0900002,0.0143484,0.16771,15.723,2.63691
62.8318,2722.35,128.44,0.09,0.0143147,0.16556,15.6916,2.59791
62.8318,2725.35,128.53,0.09,0.0142868,0.163536,15.6661,2.56197
62.8318,2728.35,128.61,0.0899985,0.0142577,0.161204,15.6402,2.52127
62.8318,2731.35,128.76,0.0899997,0.0142256,0.159089,15.6099,2.48337
62.8318,2734.35,128.82,0.0900005,0.0142,0.1572,15.5862,2.45016
62.8318,2737.35,129.02,0.09,0.0141712,0.154987,15.5599,2.41159
62.8318,2740.35,129.17,0.0899997,0.0141427,0.152959,15.5335,2.37598
62.8318,2743.35,129.24,0.0899992,0.0141147,0.150931,15.5075,2.34057
62.8318,2746.35,129.38,0.0899998,0.0140907,0.148996,15.4854,2.30726
62.8318,2749.35,129.49,0.0899999,0.014064,0.146979,15.4605,2.27237
62.8318,2752.35,129.64,0.0899994,0.0140379,0.144683,15.437,2.23348
62.8318,2755.35,129.72,0.0899978,0.0140139,0.142299,15.4161,2.19369
62.8318,2758.35,129.47,0.0900009,0.0139758,0.140129,15.3783,2.15494
62.8318,2761.35,128.96,0.0899988,0.0139517,0.137773,15.357,2.11579
62.8318,2764.35,129.71,0.0899986,0.0139254,0.135077,15.3337,2.07123
62.8318,2767.35,130.15,0.0899989,0.0139093,0.13314,15.3198,2.03968
62.8318,2770.35,130.3,0.0900007,0.0138875,0.131929,15.2979,2.01823
62.8318,2773.35,130.54,0.0899996,0.0138663,0.130151,15.2782,1.98849
62.8318,2776.35,130.64,0.0900005,0.0138424,0.128359,15.2552,1.95815
62.8318,2779.35,130.5,0.0899998,0.0138143,0.125985,15.2288,1.91861
62.8318,2782.35,129.91,0.0899983,0.0137943,0.123844,15.2111,1.8838
62.8318,2785.35,130.65,0.089999,0.0137726,0.121693,15.191,1.84864
62.8318,2788.35,131.17,0.0899994,0.0137571,0.119952,15.177,1.82051
62.8318,2791.35,131.37,0.0900001,0.0137395,0.118436,15.1601,1.79551
62.8318,2794.35,131.62,0.0899996,0.013722,0.116648,15.1441,1.76652
62.8318,2797.35,131.71,0.0899995,0.0137027,0.114793,15.126,1.73635
62.8318,2800.35,131.29,0.089999,0.0136796,0.112929,15.1037,1.70564
62.8318,2803.35,131.26,0.0899982,0.0136622,0.110335,15.0889,1.66483
62.8318,2806.35,131.97,0.09,0.0136436,0.108359,15.0713,1.63311
62.8318,2809.35,132.4,0.0899993,0.0136303,0.107271,15.0585,1.61534
62.8318,2812.35,132.57,0.0899992,0.0136179,0.105917,15.047,1.59374
62.8318,2815.35,132.74,0.0899994,0.0136026,0.103908,15.0332,1.56206
62.8318,2818.35,132.05,0.0900002,0.0135845,0.102261,15.0155,1.5355
62.8318,2821.35,132.44,0.0899994,0.0135657,0.100321,14.9978,1.50459
62.8318,2824.35,133.12,0.089998,0.0135569,0.0984544,14.9911,1.47594
62.8318,2827.35,133.3,0.09,0.0135434,0.0974952,14.9772,1.46021
62.8318,2830.35,133.53,0.0900002,0.0135297,0.0960595,14.9641,1.43744
62.8318,2833.35,133.58,0.0899987,0.0135162,0.093921,14.9525,1.40435
62.8318,2836.35,132.74,0.0899989,0.0135007,0.0919829,14.9379,1.37403
62.8318,2839.35,133.44,0.0899992,0.0134887,0.0905863,14.9265,1.35213
62.8318,2842.35,134.07,0.0900001,0.0134785,0.0894256,14.9166,1.33393
62.8318,2845.35,134.37,0.0899998,0.0134695,0.0878046,14.9087,1.30906
62.8318,2848.35,134.59,0.0899995,0.0134591,0.0867369,14.8987,1.29227
62.8318,2851.35,134.18,0.0899983,0.0134501,0.0846765,14.8915,1.26096
62.8318,2854.35,134.01,0.0899999,0.0134356,0.0834954,14.8767,1.24213
62.8318,2857.35,134.81,0.0899993,0.0134281,0.0820559,14.8702,1.22019
62.8318,2860.35,135.19,0.0899991,0.0134226,0.0805029,14.866,1.19676
62.8318,2863.35,135.36,0.09,0.0134142,0.0793718,14.8579,1.1793
62.8318,2866.35,135.47,0.0899987,0.0134028,0.0780343,14.847,1.15858
62.8318,2869.35,134.58,0.0899991,0.0133931,0.0763291,14.8382,1.13259
62.8318,2872.35,135.35,0.0900003,0.0133817,0.0749374,14.827,1.11109
62.8318,2875.35,135.97,0.0900001,0.0133785,0.0738113,14.8246,1.09422
62.8318,2878.35,136.26,0.0899983,0.0133732,0.0725377,14.8205,1.07504
62.8318,2881.35,136.45,0.0900002,0.0133679,0.0718158,14.815,1.06395
62.8318,2884.35,136.05,0.0899993,0.0133562,0.0702022,14.8039,1.03927
62.8318,2887.35,135.74,0.0899988,0.0133496,0.0686409,14.7983,1.01577
62.8318,2890.35,136.66,0.0899993,0.0133439,0.0674121,14.7931,0.997232
62.8318,2893.35,137.11,0.0899984,0.0133393,0.0662209,14.7893,0.979363
62.8318,2896.35,137.31,0.09,0.0133369,0.0655296,14.7871,0.968993
62.8318,2899.35,137.23,0.0899999,0.013329,0.0642048,14.7795,0.948917
62.8318,2902.35,136.44,0.0900006,0.0133193,0.0631405,14.7697,0.932568
62.8318,2905.35,137.34,0.0899982,0.0133205,0.0616793,14.7727,0.911171
62.8318,2908.35,137.92,0.0899993,0.0133181,0.0608802,14.7707,0.899244
62.8318,2911.35,138.14,0.0900004,0.0133106,0.0600464,14.763,0.886462
62.8318,2914.35,138.09,0.0899995,0.0133051,0.0588977,14.758,0.869212
62.8318,2917.35,137.22,0.0899994,0.0133011,0.0574903,14.7547,0.848254
62.8318,2920.35,138.12,0.089999,0.0132989,0.0566192,14.7531,0.83531
62.8318,2923.35,138.77,0.0899991,0.0132999,0.0560176,14.7547,0.82652
62.8318,2926.35,138.95,0.0900008,0.0132968,0.0552367,14.7516,0.814829
62.8318,2929.35,138.82,0.0899993,0.013292,0.0537317,14.7477,0.792421
62.8318,2932.35,138.02,0.0899997,0.0132897,0.0531356,14.7456,0.783515
62.8318,2935.35,139.05,0.0899985,0.0132875,0.0517882,14.7444,0.763586
62.8318,2938.35,139.62,0.0899996,0.0132887,0.0513421,14.7459,0.757083
62.8318,2941.35,139.76,0.0900005,0.0132861,0.0505158,14.7435,0.744779
62.8318,2944.35,139.33,0.0900002,0.0132822,0.0497361,14.7398,0.7331
62.8318,2947.35,138.93,0.0899983,0.0132843,0.0486555,14.7432,0.717336
62.8318,2950.35,140,0.0899995,0.0132798,0.047846,14.7386,0.705182
62.8318,2953.35,140.46,0.0900011,0.0132767,0.0474188,14.7351,0.698722
62.8318,2956.35,140.54,0.089999,0.0132819,0.0465218,14.7418,0.685817
62.8318,2959.35,139.73,0.0899999,0.0132784,0.0455538,14.7386,0.671397
62.8318,2962.35,140.01,0.0899991,0.0132786,0.0447825,14.7393,0.660065
62.8318,2965.35,140.99,0.089999,0.0132808,0.0443632,14.7421,0.654007
62.8318,2968.35,141.26,0.0900016,0.0132795,0.0436217,14.7407,0.643014
62.8318,2971.35,141.15,0.0899994,0.0132786,0.0427139,14.7406,0.629629
62.8318,2974.35,140.27,0.0899992,0.0132782,0.0419464,14.7407,0.618318
62.8318,2977.35,141.2,0.089999,0.0132798,0.0415407,14.7428,0.612427
62.8318,2980.35,141.93,0.0899993,0.0132835,0.0406832,14.7473,0.599967
62.8318,2983.35,142.03,0.0900017,0.0132815,0.0405625,14.7448,0.598084
62.8318,2986.35,141.46,0.0899989,0.0132842,0.0394797,14.7489,0.582283
62.8318,2989.35,141.18,0.0899998,0.0132817,0.0387577,14.7464,0.571535
62.8318,2992.35,142.34,0.0899997,0.013283,0.0383967,14.748,0.566275
62.8318,2995.35,142.76,0.0900009,0.0132855,0.0381951,14.7508,0.563406
62.8318,2998.35,142.73,0.0899997,0.0132866,0.0373063,14.7527,0.550369
62.8318,3001.35,141.73,0.0899997,0.0132862,0.036612,14.7526,0.540122
62.8318,3004.35,142.5,0.0899992,0.0132908,0.0362139,14.758,0.534444
62.8318,3007.35,143.4,0.0900004,0.0132931,0.0358873,14.7605,0.529716
62.8318,3010.35,143.48,0.0899999,0.0132946,0.0351711,14.7626,0.519217
62.8318,3013.35,142.96,0.0899998,0.0132936,0.034713,14.7618,0.512426
62.8318,3016.35,142.59,0.0899994,0.0132979,0.0341434,14.767,0.504195
62.8318,3019.35,143.81,0.0900005,0.0132998,0.0337565,14.7691,0.498552
62.8318,3022.35,144.25,0.0900002,0.0133021,0.0336848,14.7717,0.497582
62.8318,3025.35,144.13,0.0900001,0.0133048,0.0328874,14.7751,0.485914
62.8318,3028.35,143.18,0.0899991,0.0133066,0.031997,14.7777,0.472844
62.8318,3031.35,143.94,0.0900005,0.0133076,0.0319861,14.7785,0.472708
62.8318,3034.35,144.86,0.0899996,0.0133106,0.0314776,14.7823,0.465312
62.8318,3037.35,144.93,0.0900011,0.0133133,0.0314296,14.7851,0.464688
62.8318,3040.35,144.4,0.0899996,0.0133165,0.0307704,14.7891,0.455067
62.8318,3043.35,144.06,0.0899991,0.0133215,0.0301566,14.7951,0.44617
62.8318,3046.35,145.29,0.0900011,0.0133211,0.0299396,14.7944,0.442938
62.8318,3049.35,145.7,0.0900002,0.0133263,0.0299441,14.8003,0.443182
62.8318,3052.35,145.51,0.0899993,0.0133294,0.0292017,14.8042,0.432308
62.8318,3055.35,144.59,0.0900007,0.0133292,0.0287994,14.804,0.426345
62.8318,3058.35,145.44,0.0900003,0.0133327,0.0283993,14.8081,0.420539
62.8318,3061.35,146.38,0.0899989,0.0133411,0.0283231,14.8177,0.419684
62.8318,3064.35,146.39,0.0900001,0.013343,0.0280121,14.8198,0.415132
62.8318,3067.35,145.78,0.0900016,0.0133407,0.0275601,14.8171,0.408361
62.8318,3070.35,145.51,0.0899998,0.0133481,0.0274436,14.8257,0.40687
62.8318,3073.35,146.77,0.0899991,0.0133516,0.02689,14.8299,0.398776
62.8318,3076.35,147.13,0.0900004,0.0133565,0.0269084,14.8352,0.39919
62.8318,3079.35,146.91,0.0900004,0.0133578,0.0265687,14.8366,0.394191
62.8318,3082.35,146.03,0.0900009,0.0133591,0.0262995,14.8382,0.390236
62.8318,3085.35,146.59,0.0900007,0.0133638,0.0259456,14.8436,0.385125
62.8318,3088.35,147.68,0.0899983,0.0133687,0.0254156,14.8495,0.377411
62.8318,3091.35,147.7,0.0900006,0.0133753,0.0256195,14.8565,0.380616
62.8318,3094.35,147.4,0.0900009,0.0133731,0.0251671,14.8542,0.373837
62.8318,3097.35,146.62,0.0900012,0.0133778,0.0251715,14.8593,0.374031
62.8318,3100.35,147.23,0.0899986,0.0133825,0.0246681,14.8651,0.366695
62.8318,3103.35,148.35,0.0900005,0.0133877,0.024505,14.8706,0.364405
62.8318,3106.35,148.34,0.0899998,0.0133933,0.0245957,14.8769,0.36591
62.8318,3109.35,148.13,0.0900007,0.0133923,0.0241586,14.8759,0.359379
62.8318,3112.35,147.45,0.090001,0.0133967,0.0237817,14.8808,0.353891
62.8318,3115.35,147.31,0.0899999,0.0134009,0.0235887,14.8858,0.351136
62.8318,3118.35,148.66,0.0900002,0.0134063,0.0237072,14.8916,0.353039
62.8318,3121.35,149.07,0.0900005,0.0134133,0.0237823,14.8993,0.35434
62.8318,3124.35,148.9,0.0899998,0.0134164,0.0232422,14.9031,0.346381
62.8318,3127.35,148.84,0.0900008,0.0134173,0.023038,14.904,0.343358